Label,Mode,FlexPinky,FlexRing,FlexMiddle,FlexIndex,FlexThumb,TouchIndex,TouchMiddle,TouchRing,TouchPinky,TouchR,TouchU,AccX,AccY,AccZ,GyroX,GyroY,GyroZ
A,1,363,511,413,187,2550,1,1,1,1,1,0,17944,-2364,-3112,-154,-973,487
A,1,366,507,396,193,2545,1,1,1,1,1,0,18252,-2340,-2732,-260,-264,609
A,1,357,525,394,190,2543,1,1,1,1,1,0,18280,-2336,-2156,-323,-208,379
A,1,359,509,403,198,2544,1,1,1,1,1,0,18116,-2392,-1816,-462,-496,168
A,1,375,508,401,188,2545,1,1,1,1,1,0,18012,-2368,-2204,-469,-699,69
A,1,368,511,404,190,2547,1,1,1,1,1,0,18100,-2340,-2556,-344,-1064,206
A,1,377,509,389,189,2545,1,1,1,1,1,0,18344,-2520,-2688,-582,-972,186
A,1,374,501,406,189,2550,1,1,1,1,1,0,18096,-2516,-3280,-708,-385,122
A,1,368,508,395,196,2549,1,1,1,1,1,0,17876,-2760,-2968,-661,-109,-92
A,1,368,511,414,194,2547,1,1,1,1,1,0,17876,-2628,-2192,-804,-561,-240
A,1,381,511,395,192,2546,1,1,1,1,1,0,17924,-2280,-2680,-734,-382,-424
A,1,373,511,403,191,2550,1,1,1,1,1,0,17936,-2264,-2864,-779,-614,-400
A,1,378,511,406,188,2549,1,1,1,1,1,0,18064,-1988,-2704,-768,-391,-293
A,1,369,509,405,192,2546,1,1,1,1,1,0,18120,-2168,-2384,-571,-317,-206
A,1,363,525,394,188,2544,1,1,1,1,1,0,17948,-2184,-2360,-297,-914,-117
A,1,384,502,411,185,2546,1,1,1,1,1,0,17940,-2140,-2780,-220,-1278,-586
A,1,372,506,400,186,2544,1,1,1,1,1,0,18028,-1624,-3228,-634,-1130,-271
A,1,384,503,400,192,2544,1,1,1,1,1,0,17872,-1896,-3820,-616,-433,2
A,1,369,511,391,192,2549,1,1,1,1,1,0,17992,-1884,-3256,-885,-81,-130
A,1,322,535,384,184,2545,1,1,1,1,1,0,18088,-1596,-3004,-773,-195,-65
A,1,371,507,400,199,2544,1,1,1,1,1,0,18120,-1704,-3064,-939,-334,-184
A,1,371,511,400,189,2545,1,1,1,1,1,0,18112,-1380,-3056,-328,-753,-52
A,1,375,505,416,183,2541,1,1,1,1,1,0,18176,-2840,-2724,1829,-1921,-341
A,1,367,511,401,197,2543,1,1,1,1,1,0,18404,-2064,-2968,-1583,-1812,-1700
A,1,368,507,423,175,2549,1,1,1,1,1,0,18308,-1280,-3140,-159,-2142,-1678
A,1,387,525,418,181,2546,1,1,1,1,1,0,17960,-1820,-3052,-1277,-2048,-1842
A,1,368,506,400,187,2544,1,1,1,1,1,0,17832,-1392,-2924,-277,-1927,-1492
A,1,375,509,399,190,2546,1,1,1,1,1,0,17924,-1400,-3812,-641,-2042,-1578
A,1,368,509,416,189,2553,1,1,1,1,1,0,17540,-552,-5028,-608,-1452,-1517
A,1,363,528,390,202,2538,1,1,1,1,1,0,17024,724,-4980,-1087,-444,-560
A,1,542,816,528,268,2549,1,1,1,1,1,0,-10240,136,-11336,-125,420,379
A,1,529,821,528,259,2545,1,1,1,1,1,0,-10644,92,-12448,806,1990,691
A,1,560,819,528,261,2535,1,1,1,1,1,0,-11408,644,-13988,1071,2753,1217
A,1,546,826,511,272,2544,1,1,1,1,1,0,-11112,520,-15092,609,5233,2358
A,1,564,839,529,258,2536,1,1,1,1,1,0,-15116,1304,-21208,1684,7389,4519
A,1,561,844,509,268,2554,1,1,1,1,1,1,-12636,1780,-22160,5828,24699,6630
A,1,560,782,499,259,2533,1,1,1,1,1,1,-13548,-480,-20040,12638,31034,5523
A,1,502,687,464,215,2537,1,1,1,1,1,0,-3984,-4352,-10952,3485,32767,3804
A,1,448,624,421,210,2547,1,1,1,1,1,1,-144,-4688,-6756,1928,25198,2341
A,1,432,587,390,185,2548,1,1,1,1,1,1,2972,-4684,-7948,721,19879,-887
A,1,417,570,405,158,146,1,1,1,1,1,0,5504,-2064,-10804,-1011,12331,-2071
A,1,398,451,401,215,65,1,1,1,1,1,0,7532,-2532,-15572,1435,10459,-3293
A,1,387,509,405,169,2535,1,1,1,1,1,0,9288,-3752,-15180,1152,16780,-4645
A,1,336,446,368,161,2545,1,1,1,1,1,0,9636,-3044,-12428,32,15928,-5092
A,1,310,443,0,144,2542,1,1,1,1,1,0,12700,-2420,-9928,1529,18401,-6114
A,1,304,443,327,128,2550,1,1,1,1,1,0,10628,-1416,-12020,-1017,22356,-6862
A,1,307,411,375,105,2547,1,1,1,1,1,0,19620,15072,-9676,1579,5394,-5907
A,1,287,441,339,146,2542,1,1,1,1,1,0,16720,-10472,-8384,11959,20194,-1142
A,1,305,462,336,153,2544,1,1,1,1,1,0,16832,2576,-5648,603,1591,-1641
A,1,315,465,346,148,2545,1,1,1,1,1,0,16432,56,-6684,-1314,-2250,855
A,1,320,444,341,134,2526,1,1,1,1,1,0,16040,456,-7320,-6473,-2220,786
A,1,314,465,336,115,2544,1,1,1,1,1,0,16044,292,-8300,-441,-1540,1642
A,1,319,0,336,96,2549,1,1,1,1,1,0,16396,-1592,-8664,-1627,122,669
A,1,326,0,343,134,2539,1,1,1,1,1,0,16504,-1628,-7940,-177,572,-219
A,1,315,0,351,131,2542,1,1,1,1,1,0,16152,-880,-8072,-1859,346,-960
A,1,337,0,365,166,2536,1,1,1,1,1,0,16356,272,-7448,-1373,828,-916
A,1,326,0,349,170,2535,1,1,1,1,1,0,16468,340,-7112,98,105,148
A,1,342,0,357,169,2543,1,1,1,1,1,0,16568,-364,-7972,-1093,552,-262
A,1,325,0,363,163,2546,1,1,1,1,1,0,16760,-792,-8048,-391,516,-19
A,1,331,0,361,165,2537,1,1,1,1,1,0,16880,-612,-7436,-1063,1081,-510
A,1,337,490,363,172,2525,1,1,1,1,1,0,17032,-1348,-768,-2193,701,-1546
A,1,365,491,372,177,2528,1,1,1,1,1,0,18176,-316,-716,-2167,1539,-605
A,1,348,482,375,176,2518,1,1,1,1,1,0,17884,-1668,-484,-1975,1745,330
A,1,337,486,369,170,2522,1,1,1,1,1,0,18336,-2088,800,-1177,969,540
A,1,342,485,354,182,2523,1,1,1,1,1,0,18496,-1240,1080,-1046,344,-38
A,1,335,497,361,171,2525,1,1,1,1,1,0,18692,-1408,932,-1237,-952,-270
A,1,357,477,413,178,2529,1,1,1,1,1,0,18344,-1376,-1000,-1424,-1302,-522
A,1,339,492,376,176,2519,1,1,1,1,1,0,18272,-476,-580,-21,-1,-987
A,1,345,491,367,171,2529,1,1,1,1,1,0,18084,-712,-512,-148,-104,-392
A,1,346,497,368,172,2523,1,1,1,1,1,0,18288,-168,-384,-446,-78,-900
A,1,347,496,374,179,2527,1,1,1,1,1,0,18252,788,-900,-827,-782,-172
A,1,322,511,363,179,2544,1,1,1,1,1,0,18488,156,-1136,-1795,-34,435
A,1,338,492,379,178,2528,1,1,1,1,1,0,17988,-1100,-1168,-1551,348,822
A,1,361,492,368,173,2534,1,1,1,1,1,0,18088,-484,-180,-1058,561,544
A,1,345,492,367,176,2527,1,1,1,1,1,0,18364,-884,372,-605,84,568
A,1,366,496,371,177,2525,1,1,1,1,1,0,18496,-340,92,-316,-154,484
A,1,320,498,368,180,2531,1,1,1,1,1,0,18680,-896,-168,-505,486,382
A,1,356,496,375,192,2533,1,1,1,1,1,0,18392,-852,-244,-211,609,351
A,1,354,498,376,178,2527,1,1,1,1,1,0,18708,0,704,472,602,277
A,1,346,494,369,186,2530,1,1,1,1,1,0,18120,-992,284,-144,595,109
A,1,367,508,375,176,2529,1,1,1,1,1,0,18320,-844,268,-230,238,246
A,1,336,491,400,160,2529,1,1,1,1,1,0,18408,-808,148,-185,459,446
A,1,351,496,368,186,2525,1,1,1,1,1,0,18460,-992,688,-308,147,335
A,1,353,499,369,174,2531,1,1,1,1,1,0,18592,-832,368,19,173,289
A,1,357,490,373,183,2524,1,1,1,1,1,0,18496,-1036,244,186,237,435
A,1,355,496,374,174,2525,1,1,1,1,1,0,18296,-984,620,-448,492,227
A,1,337,494,383,175,2533,1,1,1,1,1,0,18348,-1084,984,-836,286,182
A,1,348,496,369,176,2542,1,1,1,1,1,0,18408,-1088,880,-717,230,146
A,1,343,500,368,176,2527,1,1,1,1,1,0,18496,-964,420,-974,439,76
A,1,349,496,372,183,2527,1,1,1,1,1,0,18444,-1292,-60,-865,1771,-294
A,1,273,426,336,107,2511,1,1,1,1,1,0,14420,15192,11160,-13488,7474,-13454
A,1,282,421,336,142,2523,1,1,1,1,1,0,12148,6332,404,-2793,-3038,-816
A,1,283,431,336,128,2515,1,1,1,1,1,0,20664,4592,-2400,1267,-1694,5946
A,1,257,433,400,126,2528,1,1,1,1,1,0,19544,-1460,-2628,-336,1761,1793
A,1,305,443,347,169,2517,1,1,1,1,1,0,19764,756,-1300,1791,-217,4073
A,1,305,454,349,160,2512,1,1,1,1,1,0,19072,804,704,1130,-995,-11
A,1,290,441,361,155,2515,1,1,1,1,1,0,18428,1140,-696,1587,-4350,-720
A,1,302,0,347,155,2506,1,1,1,1,1,0,19000,2960,-1232,3269,-3540,-1504
A,1,320,0,362,157,2499,1,1,1,1,1,0,18268,3116,-3056,2258,718,-808
A,1,279,0,342,154,2503,1,1,1,1,1,0,19316,3104,-1524,1396,-1139,-1325
A,1,298,0,351,170,2505,1,1,1,1,1,0,18680,3096,-2376,1777,-135,-837
A,1,306,469,355,178,2506,1,1,1,1,1,0,16784,3304,-3580,-598,292,-1101
A,1,303,479,353,173,2505,1,1,1,1,1,0,16876,3184,-1276,-67,1795,-68
A,1,304,494,341,162,2510,1,1,1,1,1,0,17464,3220,528,193,805,1285
A,1,289,491,368,182,2507,1,1,1,1,1,0,17856,1996,-268,-76,1015,1107
A,1,304,479,360,162,2508,1,1,1,1,1,0,18232,2564,-756,-58,914,860
A,1,304,486,354,169,2505,1,1,1,1,1,0,17664,2024,-316,417,1751,1536
A,1,298,479,369,160,2507,1,1,1,1,1,0,18232,1328,1372,-484,798,1266
A,1,318,469,334,196,2512,1,1,1,1,1,0,18600,1820,1672,316,258,760
A,1,304,470,368,177,2512,1,1,1,1,1,0,19272,1140,980,446,-456,405
A,1,322,486,373,181,2512,1,1,1,1,1,0,18516,1724,-312,705,-210,-384
A,1,314,400,355,179,2513,1,1,1,1,1,0,18180,1724,280,1261,757,323
A,1,305,399,384,190,2513,1,1,1,1,1,0,18112,2612,876,92,968,98
A,1,322,493,349,195,2501,1,1,1,1,1,0,17484,1984,816,-133,-47,282
A,1,305,443,368,174,2515,1,1,1,1,1,0,18380,1744,216,-212,-996,888
A,1,307,438,369,187,2509,1,1,1,1,1,0,19100,1632,-684,-184,-895,37
A,1,320,491,252,176,2511,1,1,1,1,1,0,18804,2416,-676,-277,542,-101
A,1,323,477,298,174,2512,1,1,1,1,1,0,17508,2400,560,-839,1518,219
A,1,311,483,255,166,2512,1,1,1,1,1,0,18052,2212,2284,15,386,1283
A,1,321,498,288,167,2512,1,1,1,1,1,0,17848,492,-456,-112,-1200,201
A,1,329,459,352,144,2525,1,1,1,1,1,0,17232,-3640,-6148,-2342,2630,-1500
A,1,323,446,326,0,2527,1,1,1,1,1,0,17296,-1440,-6932,2237,7056,-3102
A,1,303,435,371,160,2537,1,1,1,1,1,0,16800,-1696,-5956,1825,11746,-4274
A,1,304,452,366,138,2523,1,1,1,1,1,0,18836,-788,-760,-518,6678,-3181
A,1,322,459,0,112,2525,1,1,1,1,1,0,19164,-100,864,-654,8493,-1940
A,1,301,464,0,130,2527,1,1,1,1,1,0,16932,68,-1360,478,2874,-1963
A,1,304,465,0,125,2526,1,1,1,1,1,0,19516,-16,1268,-1329,3557,-1436
A,1,307,475,368,132,2512,1,1,1,1,1,0,17584,-676,212,-33,2320,-622
A,1,303,479,366,161,2501,1,1,1,1,1,0,19096,-44,1304,-1132,-1904,-84
A,1,308,486,368,155,2507,1,1,1,1,1,0,18632,-240,-1680,-587,-529,-291
A,1,304,479,370,159,2496,1,1,1,1,1,0,18592,-580,-1264,-480,-265,41
A,1,310,483,381,165,2493,1,1,1,1,1,0,18520,-128,-496,-868,635,-15
A,1,320,482,375,183,2501,1,1,1,1,1,0,18036,-984,-456,-942,-336,49
A,1,311,489,368,167,2499,1,1,1,1,1,0,18464,344,-548,-829,-216,90
A,1,323,480,370,176,2501,1,1,1,1,1,0,18380,-616,-496,-820,71,403
A,1,318,483,378,181,2499,1,1,1,1,1,0,18280,-516,-592,-450,-199,483
A,1,319,487,382,188,2496,1,1,1,1,1,0,18652,-56,-12,-357,-341,677
A,1,328,490,379,186,2506,1,1,1,1,1,0,18340,-572,-580,-913,37,215
A,1,322,496,373,190,2498,1,1,1,1,1,0,18668,-92,148,-611,-223,424
A,1,322,496,375,185,2500,1,1,1,1,1,0,18424,-1004,-372,-632,291,342
A,1,324,496,379,175,2496,1,1,1,1,1,0,18316,-616,100,-354,-425,150
A,1,319,496,378,182,2499,1,1,1,1,1,0,18356,-524,-448,-321,6,151
A,1,336,496,380,179,2499,1,1,1,1,1,0,17920,-416,-100,-582,-151,154
A,1,324,496,379,185,2499,1,1,1,1,1,0,18388,-468,-504,-688,-157,147
A,1,339,489,382,183,2497,1,1,1,1,1,0,18532,-324,-244,-673,-157,404
A,1,320,489,358,177,2509,1,1,1,1,1,0,18628,-856,132,-758,105,155
A,1,324,495,390,190,2506,1,1,1,1,1,0,18312,-688,108,-48,-411,251
A,1,317,495,372,195,2508,1,1,1,1,1,0,18284,-500,492,-495,-1091,-245
A,1,322,497,370,175,2506,1,1,1,1,1,0,17500,-508,-144,-259,-977,-140
A,1,336,502,369,176,2499,1,1,1,1,1,0,18604,-908,396,-865,-1307,-345
B,1,1590,1849,949,496,2544,1,1,1,1,1,1,17728,624,-4244,-1268,-419,-45
B,1,1569,1839,955,490,2544,1,1,1,1,1,1,17452,888,-4084,-1201,-661,16
B,1,1584,1840,935,493,2544,1,1,1,1,1,1,17408,1076,-4956,-989,-548,44
B,1,1597,1840,944,496,2541,1,1,1,1,1,1,17472,-268,-6372,1095,-133,375
B,1,1584,1834,949,491,2544,1,1,1,1,1,1,17872,824,-5816,67,965,130
B,1,1582,1840,938,498,2545,1,1,1,1,1,1,18136,772,-4428,-171,333,-13
B,1,1576,1846,918,498,2542,1,1,1,1,1,1,17936,832,-4160,-1164,-376,-413
B,1,1584,1826,938,489,2541,1,1,1,1,1,1,17620,752,-4628,-876,-451,-232
B,1,1586,1829,933,498,2539,1,1,1,1,1,1,17316,516,-4964,-749,-406,166
B,1,1581,1830,939,490,2544,1,1,1,1,1,1,17348,556,-5376,-212,135,167
B,1,1584,1825,944,484,2544,1,1,1,1,1,1,17372,1048,-4772,-849,515,36
B,1,1606,1822,909,529,2537,1,1,1,1,1,1,17704,852,-4344,-918,-475,161
B,1,1589,1823,922,488,2559,1,1,1,1,1,1,17864,876,-4564,-663,-430,149
B,1,1584,1822,927,494,2551,1,1,1,1,1,1,17644,636,-4772,-331,-368,363
B,1,1583,1822,919,496,2544,1,1,1,1,1,1,17440,544,-5144,-84,484,-188
B,1,1581,1804,934,501,2544,1,1,1,1,1,1,17240,500,-5280,-1338,969,-538
B,1,1602,1792,887,498,2559,1,1,1,1,1,1,17916,868,-4420,-551,-30,-6
B,1,1567,1794,917,467,2553,1,1,1,1,1,1,17992,896,-4072,-624,-220,74
B,1,1577,1793,914,455,2544,1,1,1,1,1,1,17536,772,-4324,-456,-728,58
B,1,1583,1788,921,481,2542,1,1,1,1,1,1,17648,992,-4784,-385,-407,114
B,1,1565,1798,912,496,2538,1,1,1,1,1,1,17124,760,-4812,-643,-430,382
B,1,1535,1799,917,487,2537,1,1,1,1,1,1,17404,1024,-4684,-737,11,347
B,1,1574,1803,918,491,2544,1,1,1,1,1,1,17548,884,-4564,-437,-153,364
B,1,1584,1807,928,486,2544,1,1,1,1,1,1,17736,828,-4424,196,-76,595
B,1,1573,1803,931,486,2546,1,1,1,1,1,1,17768,772,-4412,-396,-508,596
B,1,1573,1802,946,494,2539,1,1,1,1,1,1,17880,468,-4664,-265,-327,448
B,1,1572,1808,931,493,2549,1,1,1,1,1,1,17792,452,-4628,51,258,397
B,1,1571,1798,912,491,2543,1,1,1,1,1,1,17596,560,-4456,-670,189,309
B,1,1577,1808,943,480,2548,1,1,1,1,1,1,17500,524,-4284,-450,-323,320
B,1,1568,1808,941,502,2544,1,1,1,1,1,1,17760,352,-4352,-447,-476,224
B,1,1535,1909,964,487,2550,1,1,1,1,1,1,18652,3536,-3904,-218,-741,-254
B,1,1555,1907,947,471,2547,1,1,1,1,1,1,16752,3416,-4672,-1066,-1765,-269
B,1,1535,1909,964,464,2538,1,1,1,1,1,1,17624,2596,-4572,-483,-32,-400
B,1,1535,1919,969,450,2545,1,1,1,1,1,1,16680,3148,-4608,-982,1360,-109
B,1,1558,1920,964,463,2544,1,1,1,1,1,1,17108,3096,-4220,-1093,419,407
B,1,1555,1905,962,480,2544,1,1,1,1,1,1,17628,2872,-4228,-407,670,575
B,1,1535,1925,967,479,2549,1,1,1,1,1,1,17104,2644,-4172,-309,506,-140
B,1,1557,1923,967,524,2537,1,1,1,1,1,1,17976,2624,-4400,-984,-12,-1010
B,1,1559,1925,977,511,2544,1,1,1,1,1,1,17832,3324,-3800,-526,334,-564
B,1,1569,1938,970,548,2545,1,1,1,1,1,1,17792,3408,-4224,-527,254,-174
B,1,1563,1938,976,539,2542,1,1,1,1,1,1,17360,3288,-3948,-398,738,-56
B,1,1582,1943,975,557,2542,1,1,1,1,1,1,17520,3524,-3496,-858,-179,176
B,1,1569,1946,970,555,2540,1,1,1,1,1,1,17336,3256,-3396,-535,-515,77
B,1,1572,1947,974,559,2546,1,1,1,1,1,1,17616,3540,-3940,-443,-631,14
B,1,1586,1943,976,553,2544,1,1,1,1,1,1,17404,3492,-4304,-812,-510,351
B,1,1581,1946,963,558,2542,1,1,1,1,1,1,17448,3164,-4044,-1211,-412,372
B,1,1572,1951,965,543,2539,1,1,1,1,1,1,17436,3408,-4048,-1346,-687,640
B,1,1567,1938,981,567,2538,1,1,1,1,1,1,17612,3276,-3780,-320,-682,245
B,1,1585,1947,963,553,2543,1,1,1,1,1,1,17656,3344,-3548,-476,-647,350
B,1,1578,1947,982,566,2546,1,1,1,1,1,1,17588,2980,-3732,-146,-1142,731
B,1,1575,1949,978,554,2544,1,1,1,1,1,1,17404,2704,-4776,-112,-623,574
B,1,1575,1946,976,547,2541,1,1,1,1,1,1,17768,2584,-4612,-164,-151,428
B,1,1555,1950,975,542,2546,1,1,1,1,1,1,17580,2820,-4144,59,469,-5
B,1,1572,1938,972,546,2544,1,1,1,1,1,1,17584,3412,-3620,-242,323,352
B,1,1584,1922,975,551,2539,1,1,1,1,1,1,17892,3800,-3840,-1442,-973,1491
B,1,1561,1920,971,542,2543,1,1,1,1,1,1,17052,2236,-4952,-87,-1509,1089
B,1,1569,1918,979,549,2548,1,1,1,1,1,1,17264,2268,-4904,-1335,-600,692
B,1,1568,1934,951,569,2538,1,1,1,1,1,1,17696,2060,-4380,-1076,-404,164
B,1,1555,1913,967,544,2547,1,1,1,1,1,1,17856,2964,-4304,-1117,-69,131
B,1,1568,1918,971,553,2547,1,1,1,1,1,1,17556,2636,-4384,-1134,318,47
B,1,1717,2096,1003,529,2538,1,1,1,1,1,1,17332,3524,-5924,-309,141,-144
B,1,1717,2087,1014,508,2538,1,1,1,1,1,1,16600,3560,-6064,-449,-564,494
B,1,1719,2101,1019,524,2539,1,1,1,1,1,1,17284,3508,-5796,-522,-861,758
B,1,1711,2092,1023,511,2553,1,1,1,1,1,1,17036,3044,-5848,-932,-565,792
B,1,1701,2094,1017,528,2544,1,1,1,1,1,1,16872,2504,-5604,-1247,-652,170
B,1,1733,2079,1011,528,2519,1,1,1,1,1,1,16696,2232,-6260,-568,-1148,131
B,1,1717,2089,1021,495,2537,1,1,1,1,1,1,16640,1912,-6100,-950,-1561,-329
B,1,1703,2086,1013,483,2537,1,1,1,1,1,1,16696,3108,-6264,-774,-500,-825
B,1,1712,2096,1013,485,2542,1,1,1,1,1,1,16840,3592,-6500,-751,-1218,-94
B,1,1712,2074,1012,495,2540,1,1,1,1,1,1,16592,4048,-6992,-1344,95,300
B,1,1672,2128,1032,463,2559,1,1,1,1,1,1,16376,3524,-6644,-1944,-813,1011
B,1,1712,2124,1034,483,2544,1,1,1,1,1,1,16676,3600,-7072,-1686,1514,558
B,1,1719,2138,1040,495,2540,1,1,1,1,1,1,17088,2216,-6036,-1367,857,827
B,1,1712,2147,1044,491,2544,1,1,1,1,1,0,16972,2452,-5016,-550,718,1
B,1,1717,2154,1040,503,2546,1,1,1,1,1,1,17232,3360,-5464,-928,-1002,-317
B,1,1665,2160,1039,508,2550,1,1,1,1,1,0,17332,4056,-6020,-934,-629,-139
B,1,1719,2155,1040,505,2541,1,1,1,1,1,0,17356,3748,-6460,-328,75,519
B,1,1725,2154,1045,503,2542,1,1,1,1,1,0,17084,3256,-6396,-2047,558,-663
B,1,1706,2156,1055,511,2546,1,1,1,1,1,0,16948,3776,-5848,-2318,-97,-1290
B,1,1719,2146,1036,511,2555,1,1,1,1,1,0,16100,3348,-5248,-2208,864,-974
B,1,1721,2146,1044,510,2551,1,1,1,1,1,0,16444,3444,-5036,-1101,68,-142
B,1,1710,2154,1040,511,2542,1,1,1,1,1,0,16748,3968,-4976,-1007,144,370
B,1,1710,2153,1022,511,2541,1,1,1,1,1,0,17036,3976,-5572,-536,-90,823
B,1,1707,2135,1037,527,2533,1,1,1,1,1,0,17100,3352,-5552,-384,166,624
B,1,1713,2137,1039,531,2535,1,1,1,1,1,0,16556,3700,-5564,-442,-395,563
B,1,1699,2147,1023,509,2550,1,1,1,1,1,0,16964,3888,-5768,-829,-389,596
B,1,1705,2144,1033,528,2546,1,1,1,1,1,0,17208,3832,-6012,-786,-695,551
B,1,1701,2143,1034,535,2542,1,1,1,1,1,0,17260,3664,-5856,-827,388,438
B,1,1709,2141,1020,550,2544,1,1,1,1,1,0,17268,3460,-5468,-1125,-408,486
B,1,1701,2135,1015,534,2547,1,1,1,1,1,0,17332,3744,-5344,-1095,-190,365
B,1,1593,1935,996,545,2533,1,1,1,1,1,0,17652,2800,-4084,778,10,-12
B,1,1599,1921,983,551,2542,1,1,1,1,1,0,17548,3216,-4276,497,-315,-189
B,1,1594,1921,983,540,2539,1,1,1,1,1,0,17548,3460,-4364,129,-322,-162
B,1,1586,1919,994,546,2541,1,1,1,1,1,0,17612,2988,-4276,-34,-213,-47
B,1,1607,1922,1003,544,2539,1,1,1,1,1,0,17600,2932,-3856,49,-231,-100
B,1,1587,1933,993,545,2543,1,1,1,1,1,0,17492,3212,-4100,-444,-22,-67
B,1,1591,1927,979,541,2544,1,1,1,1,1,0,17604,3096,-3976,-59,-38,195
B,1,1589,1919,989,547,2549,1,1,1,1,1,0,17592,2940,-3784,-259,-66,216
B,1,1598,1934,983,549,2544,1,1,1,1,1,0,17456,2780,-3984,-548,-383,325
B,1,1577,1919,1021,542,2522,1,1,1,1,1,0,17676,3052,-3920,-339,-446,188
B,1,1602,1926,981,551,2541,1,1,1,1,1,0,17816,2964,-4448,-60,-418,-94
B,1,1590,1933,975,549,2539,1,1,1,1,1,0,17856,3108,-4292,-55,-1277,-326
B,1,1600,1932,976,551,2544,1,1,1,1,1,0,17516,3404,-4468,-645,-317,-856
B,1,1595,1934,991,539,2548,1,1,1,1,1,0,17304,3756,-4256,-723,-71,-166
B,1,1602,1936,970,547,2544,1,1,1,1,1,0,17392,3120,-4100,-944,571,191
B,1,1597,1935,978,553,2538,1,1,1,1,1,0,17556,3048,-4256,-908,449,184
B,1,1597,1936,972,549,2541,1,1,1,1,1,0,17464,3072,-3744,-619,415,236
B,1,1597,1929,979,544,2544,1,1,1,1,1,0,17520,2776,-3612,-320,149,140
B,1,1587,1935,971,539,2544,1,1,1,1,1,0,17472,2924,-3508,-86,28,-100
B,1,1603,1918,976,542,2555,1,1,1,1,1,0,17388,3436,-3780,44,70,89
B,1,1595,1937,971,547,2544,1,1,1,1,1,0,17636,3068,-3588,21,334,310
B,1,1597,1921,971,551,2547,1,1,1,1,1,0,17600,3164,-3568,89,199,525
B,1,1609,1932,976,547,2539,1,1,1,1,1,0,17696,2884,-3320,245,-264,415
B,1,1599,1927,976,547,2544,1,1,1,1,1,0,17268,3684,-3308,-78,-1253,609
B,1,1600,1931,976,539,2544,1,1,1,1,1,0,16808,3748,-3424,-465,-2334,1273
B,1,1585,1929,956,538,2543,1,1,1,1,1,0,17200,2840,-4016,-382,-2799,1845
B,1,1602,1917,942,537,2543,1,1,1,1,1,0,17820,1748,-4280,85,-2633,1852
B,1,1607,1893,946,530,2544,1,1,1,1,1,0,18116,1932,-5268,-718,-1981,1033
B,1,1594,1899,931,511,2553,1,1,1,1,1,0,17800,1792,-5088,459,-1340,847
B,1,1589,1902,931,528,2544,1,1,1,1,1,0,17776,2368,-5204,315,-412,583
B,1,1558,1933,995,542,2551,1,1,1,1,1,0,17104,5416,-3024,-646,-136,289
B,1,1535,1927,1018,550,2544,1,1,1,1,1,0,17052,5180,-3052,-784,-175,102
B,1,1574,1904,1006,551,2532,1,1,1,1,1,0,17064,5668,-3004,-634,34,-74
B,1,1535,1914,1009,560,2546,1,1,1,1,1,0,17056,5304,-2820,-439,-85,227
B,1,1535,1922,995,554,2543,1,1,1,1,1,0,17452,5408,-2796,-456,19,236
B,1,1535,1926,1034,548,2534,1,1,1,1,1,0,16916,5260,-2660,-686,-71,197
B,1,1555,1936,994,543,2547,1,1,1,1,1,0,17424,5364,-2824,-32,-241,125
B,1,1555,1934,978,565,2525,1,1,1,1,1,0,17272,5284,-3344,-441,111,-149
B,1,1558,1905,1017,549,2544,1,1,1,1,1,0,17436,5800,-3000,-394,513,-17
B,1,1535,1930,1011,555,2543,1,1,1,1,1,0,17220,5332,-2456,-345,425,190
B,1,1535,1924,995,550,2544,1,1,1,1,1,0,17392,5400,-2308,-150,260,231
B,1,1535,1931,1014,554,2546,1,1,1,1,1,0,17160,5272,-2248,-476,23,75
B,1,1511,1936,1040,528,2559,1,1,1,1,1,0,17240,5192,-2484,-601,98,104
B,1,1535,1919,1003,546,2553,1,1,1,1,1,0,16944,5292,-3028,-271,-585,88
B,1,1565,1923,1008,537,2543,1,1,1,1,1,0,17080,5276,-2880,-426,45,136
B,1,1535,1929,1007,529,2547,1,1,1,1,1,0,17232,5308,-2848,-9,-495,210
B,1,1574,1923,996,544,2550,1,1,1,1,1,0,17224,5552,-2832,-572,167,47
B,1,1530,1899,1035,560,2529,1,1,1,1,1,0,17456,5416,-2524,-155,-339,317
B,1,1558,1931,1011,544,2539,1,1,1,1,1,0,17220,5168,-2712,-832,434,108
B,1,1567,1935,1008,539,2544,1,1,1,1,1,0,17432,5272,-2544,-263,-20,250
B,1,1561,1931,1014,539,2543,1,1,1,1,1,0,17340,5360,-2692,-827,-72,267
B,1,1535,1941,998,557,2532,1,1,1,1,1,0,17216,5108,-2472,-362,-99,314
B,1,1573,1964,960,555,2539,1,1,1,1,1,0,17396,5016,-2292,-154,-442,251
B,1,1535,1936,1013,548,2546,1,1,1,1,1,0,17388,5248,-2628,-633,-135,54
B,1,1567,1936,1008,542,2544,1,1,1,1,1,0,17228,5168,-2432,-322,-372,273
B,1,1571,1935,1002,558,2544,1,1,1,1,1,0,17016,5192,-2764,-485,259,68
B,1,1565,1934,1003,544,2542,1,1,1,1,1,0,17324,5240,-2624,-383,-502,308
B,1,1584,1930,1009,537,2541,1,1,1,1,1,0,17116,5336,-2840,-398,137,119
B,1,1571,1910,1010,539,2544,1,1,1,1,1,0,17592,5152,-2640,-463,-377,291
B,1,1566,1935,999,547,2544,1,1,1,1,1,0,17304,5256,-2784,-555,12,219
C,1,629,634,444,223,2495,1,1,1,1,1,0,13764,120,-11404,-170,-78,-331
C,1,621,621,443,240,2498,1,1,1,1,1,1,14500,-12,-11008,-1361,523,-563
C,1,628,629,434,213,2486,1,1,1,1,1,1,13940,948,-11000,-1199,-335,-724
C,1,622,630,417,225,2494,1,1,1,1,1,1,13504,1364,-11192,-862,-662,638
C,1,627,629,414,223,2495,1,1,1,1,1,1,13504,-384,-12708,-723,-953,60
C,1,622,624,432,210,2505,1,1,1,1,1,1,14060,392,-12040,235,683,118
C,1,621,630,417,229,2496,1,1,1,1,1,1,15032,-780,-10124,3713,1319,98
C,1,624,629,415,227,2497,1,1,1,1,1,1,14360,932,-10116,-2719,530,-928
C,1,614,623,428,208,2507,1,1,1,1,1,1,14192,1252,-9496,1804,-669,833
C,1,623,641,404,225,2492,1,1,1,1,1,1,13780,152,-11736,-622,-1748,874
C,1,618,630,420,225,2502,1,1,1,1,1,1,13556,-892,-12164,-36,-600,558
C,1,626,636,427,224,2498,1,1,1,1,1,1,13088,-820,-11576,313,470,-51
C,1,624,643,436,227,2506,1,1,1,1,1,1,13452,-560,-11200,-577,622,-253
C,1,603,635,447,208,2511,1,1,1,1,1,1,14112,660,-11452,377,739,319
C,1,622,650,418,232,2492,1,1,1,1,1,1,14196,-260,-10872,305,761,852
C,1,624,626,413,218,2489,1,1,1,1,1,1,13884,-1376,-11372,-877,534,837
C,1,633,638,432,230,2496,1,1,1,1,1,1,14496,-792,-11380,-935,994,502
C,1,627,633,432,224,2500,1,1,1,1,1,1,14120,284,-10556,-1129,1484,246
C,1,603,637,416,238,2512,1,1,1,1,1,1,14212,136,-9700,-181,885,484
C,1,612,618,463,226,2506,1,1,1,1,1,1,14612,-408,-9968,-201,750,779
C,1,624,643,417,235,2512,1,1,1,1,1,1,14928,-1076,-10448,-591,-133,542
C,1,623,635,425,238,2503,1,1,1,1,1,1,14792,-868,-10344,-697,144,377
C,1,618,624,417,237,2479,1,1,1,1,1,1,14380,-916,-10604,-725,78,141
C,1,642,619,431,233,2493,1,1,1,1,1,1,14724,-252,-9908,-411,543,112
C,1,656,645,453,209,2505,1,1,1,1,1,1,15040,-732,-9776,-791,-319,142
C,1,628,643,429,230,2497,1,1,1,1,1,1,14712,-636,-10084,-600,-601,156
C,1,613,640,428,234,2502,1,1,1,1,1,1,14276,-760,-11084,-739,-860,122
C,1,625,630,421,235,2502,1,1,1,1,1,1,14472,-748,-10640,-549,-87,-25
C,1,650,640,455,235,2506,1,1,1,1,1,1,14624,-468,-10536,-646,-23,-176
C,1,596,651,448,224,2514,1,1,1,1,1,1,14796,-564,-10060,-526,-109,-41
C,1,466,324,411,216,2507,1,1,1,1,1,0,15600,-1356,-7364,-1056,491,-543
C,1,470,328,432,195,2509,1,1,1,1,1,0,16576,-1140,-7520,-699,741,-80
C,1,462,339,401,212,2514,1,1,1,1,1,0,17520,-992,-6812,-267,1223,218
C,1,481,342,413,224,2512,1,1,1,1,1,0,17448,-1372,-6632,-566,362,97
C,1,464,347,400,231,2509,1,1,1,1,1,0,16588,-2036,-6828,-593,-38,-83
C,1,475,343,425,212,2513,1,1,1,1,1,0,16596,-1976,-7108,-607,-833,-254
C,1,464,346,406,228,2512,1,1,1,1,1,0,16796,-1812,-7012,17,-260,-629
C,1,467,328,421,240,2522,1,1,1,1,1,0,16824,-1336,-7056,-38,-923,-567
C,1,475,344,417,228,2515,1,1,1,1,1,0,16468,-1148,-7708,-822,-910,-150
C,1,478,368,427,224,2502,1,1,1,1,1,0,16292,-880,-7168,-389,-601,499
C,1,476,368,407,229,2514,1,1,1,1,1,0,16632,-1244,-7572,93,-77,542
C,1,464,400,418,235,2514,1,1,1,1,1,0,16720,-1044,-7232,-214,304,423
C,1,489,423,437,210,2508,1,1,1,1,1,0,16564,-1920,-7152,445,626,347
C,1,478,420,417,235,2511,1,1,1,1,1,0,16500,-1612,-6940,-1122,-222,751
C,1,483,430,413,215,2501,1,1,1,1,1,0,16788,-2156,-6960,-703,-200,462
C,1,481,431,413,225,2512,1,1,1,1,1,0,16504,-1648,-7240,-736,-112,58
C,1,494,429,406,230,2518,1,1,1,1,1,0,16740,-1360,-6780,-537,35,-508
C,1,496,432,431,225,2514,1,1,1,1,1,0,16848,-1216,-6408,-111,-271,-163
C,1,501,367,433,213,2531,1,1,1,1,1,1,16728,-700,-6580,2134,-430,-294
C,1,485,357,422,202,2510,1,1,1,1,1,0,16668,-2500,-7256,-494,274,378
C,1,494,359,418,212,2517,1,1,1,1,1,0,17104,-1504,-6632,-329,154,95
C,1,495,367,411,208,2515,1,1,1,1,1,0,16756,-1904,-6352,-1156,-274,-139
C,1,475,364,413,227,2514,1,1,1,1,1,0,16704,-1116,-6464,-1077,-626,-98
C,1,483,366,416,215,2525,1,1,1,1,1,0,16728,-1508,-7132,-313,-344,-183
C,1,509,368,431,208,2521,1,1,1,1,1,0,16828,-1756,-7192,724,-180,-742
C,1,496,383,405,210,2512,1,1,1,1,1,0,16664,-1412,-6860,-1109,60,-211
C,1,490,381,414,208,2513,1,1,1,1,1,0,16748,-740,-6232,-81,-122,-206
C,1,507,397,415,217,2522,1,1,1,1,1,0,16876,-956,-6556,-753,-682,319
C,1,469,377,448,221,2512,1,1,1,1,1,0,16680,-1416,-6888,-412,-560,285
C,1,511,382,400,204,2514,1,1,1,1,1,0,16816,-1556,-6796,-274,-533,156
C,1,511,624,394,288,2512,1,1,1,1,1,1,16760,-1220,-6856,-2386,698,-688
C,1,545,621,414,294,2503,1,1,1,1,1,0,16524,1060,-6572,-813,252,-329
C,1,499,624,413,285,2517,1,1,1,1,1,0,16624,1368,-6900,-1874,-286,626
C,1,509,624,414,282,2512,1,1,1,1,1,0,16600,824,-7200,-1023,-580,753
C,1,526,629,415,282,2519,1,1,1,1,1,0,16700,124,-7172,-1197,-902,930
C,1,509,624,387,284,2518,1,1,1,1,1,0,16812,184,-7296,-694,-596,315
C,1,511,628,368,287,2512,1,1,1,1,1,0,16556,248,-7236,-775,-188,-89
C,1,511,629,382,278,2513,1,1,1,1,1,0,16368,640,-7348,-730,-95,47
C,1,501,619,419,284,2519,1,1,1,1,1,0,16824,452,-7072,-671,-64,151
C,1,498,613,432,276,2515,1,1,1,1,1,0,16644,228,-7740,-257,327,-14
C,1,503,613,423,278,2512,1,1,1,1,1,1,17028,-324,-7500,213,1081,-860
C,1,511,636,410,286,2506,1,1,1,1,1,1,17168,648,-6912,-731,978,-1057
C,1,511,620,405,272,2517,1,1,1,1,1,1,16532,936,-6596,-971,-60,-404
C,1,509,621,430,267,2515,1,1,1,1,1,1,16492,1056,-6296,-481,72,-23
C,1,502,624,432,278,2525,1,1,1,1,1,1,16488,260,-7108,-504,-326,298
C,1,495,631,418,282,2518,1,1,1,1,1,1,16536,324,-7180,-482,-156,239
C,1,501,624,432,261,2522,1,1,1,1,1,1,16868,620,-7032,-725,-117,157
C,1,511,620,423,277,2518,1,1,1,1,1,0,17056,776,-6996,-844,-160,142
C,1,502,621,399,278,2513,1,1,1,1,1,0,16824,956,-6864,-852,-125,120
C,1,507,622,388,274,2512,1,1,1,1,1,0,16664,732,-6908,-776,-68,402
C,1,502,619,404,279,2517,1,1,1,1,1,0,16632,592,-7008,-589,82,573
C,1,511,635,402,293,2512,1,1,1,1,1,0,16784,312,-6988,-425,589,347
C,1,511,620,402,289,2524,1,1,1,1,1,0,16572,680,-6852,-1032,621,597
C,1,509,617,393,271,2512,1,1,1,1,1,0,16736,488,-6388,-574,654,685
C,1,503,615,397,281,2512,1,1,1,1,1,0,16692,664,-6336,-744,315,817
C,1,511,624,395,272,2512,1,1,1,1,1,0,17040,456,-6524,-729,-65,940
C,1,495,618,422,274,2529,1,1,1,1,1,0,17096,216,-6876,-1074,42,900
C,1,510,624,426,275,2516,1,1,1,1,1,0,17396,-304,-6536,-433,75,812
C,1,511,624,417,276,2516,1,1,1,1,1,1,17776,-320,-6396,-2877,-329,118
C,1,527,623,426,279,2516,1,1,1,1,1,1,16764,684,-6600,-257,-248,-475
C,1,502,624,421,260,2454,1,1,1,1,1,1,17284,-3192,-5940,-866,-572,-618
C,1,527,639,427,249,2509,1,1,1,1,1,1,16804,-2880,-5996,-75,-440,-891
C,1,526,624,430,261,2512,1,1,1,1,1,1,16580,-2380,-5952,-977,-409,-982
C,1,523,637,422,270,2511,1,1,1,1,1,1,16680,-2440,-5864,-294,-730,-654
C,1,507,633,421,274,2490,1,1,1,1,1,1,16848,-2648,-6396,-229,-825,-680
C,1,507,629,419,259,2511,1,1,1,1,1,1,16712,-2384,-6668,-895,-1019,-644
C,1,503,625,418,262,2516,1,1,1,1,1,1,16624,-2512,-6720,533,-2153,-470
C,1,496,624,436,272,2517,1,1,1,1,1,1,16640,-1920,-7064,-1769,-146,222
C,1,501,622,420,259,2517,1,1,1,1,1,1,16776,-2152,-6540,-493,525,113
C,1,496,603,422,265,2512,1,1,1,1,1,1,16696,-2148,-6356,-1827,374,542
C,1,503,611,427,266,2525,1,1,1,1,1,1,16824,-2376,-6176,-1165,223,695
C,1,511,612,442,269,2512,1,1,1,1,1,1,16796,-2524,-6616,-1289,-224,754
C,1,511,622,419,248,2512,1,1,1,1,1,1,16788,-2712,-7224,125,-2162,233
C,1,501,637,432,258,2519,1,1,1,1,1,1,16684,-2800,-6856,273,336,-44
C,1,509,637,436,267,2513,1,1,1,1,1,1,17000,-1948,-6260,-602,389,39
C,1,511,638,432,262,2513,1,1,1,1,1,1,17064,-2596,-5868,-724,-39,-119
C,1,528,637,429,259,2517,1,1,1,1,1,1,16784,-2100,-6156,-644,-523,-210
C,1,507,629,435,266,2515,1,1,1,1,1,1,16596,-2132,-6572,-974,-412,219
C,1,527,632,432,270,2520,1,1,1,1,1,1,16628,-2088,-6692,-419,-149,194
C,1,526,641,435,270,2524,1,1,1,1,1,1,16784,-2304,-6684,-652,422,243
C,1,528,642,432,266,2523,1,1,1,1,1,1,17088,-2316,-6364,-231,78,-46
C,1,529,629,432,271,2516,1,1,1,1,1,1,17072,-1956,-5936,-487,-48,189
C,1,511,639,439,274,2518,1,1,1,1,1,1,16768,-2056,-6108,-777,-265,339
C,1,542,639,437,271,2514,1,1,1,1,1,1,16524,-1992,-6376,-351,68,769
C,1,528,640,436,262,2518,1,1,1,1,1,1,16836,-2472,-6672,-510,176,995
C,1,529,644,416,271,2513,1,1,1,1,1,1,17068,-2592,-6332,-888,325,935
C,1,528,637,432,265,2521,1,1,1,1,1,1,16844,-3000,-6136,-1125,803,593
C,1,511,640,437,270,2512,1,1,1,1,1,1,16656,-2360,-5512,-536,1072,521
C,1,511,634,423,267,2529,1,1,1,1,1,1,16596,-2360,-5336,-448,337,874
C,1,526,640,430,271,2518,1,1,1,1,1,1,16876,-2504,-5540,-102,-114,1100
C,1,528,629,446,240,2525,1,1,1,1,1,0,15792,-248,-8848,-2195,102,78
C,1,498,625,462,222,2544,1,1,1,1,1,0,15596,-16,-8884,-2194,-318,-32
C,1,538,631,448,247,2543,1,1,1,1,1,0,15748,656,-8876,-2853,-974,63
C,1,527,627,441,256,2523,1,1,1,1,1,0,15428,1036,-9300,-1809,-653,-300
C,1,542,630,441,258,2521,1,1,1,1,1,0,15352,1168,-9188,-2657,-825,129
C,1,541,635,433,262,2525,1,1,1,1,1,0,15132,1428,-9128,-2947,-1164,523
C,1,528,645,418,264,2517,1,1,1,1,1,0,15336,1336,-9336,-1709,-352,310
C,1,528,637,423,236,2519,1,1,1,1,1,0,15272,1264,-9596,-1013,-105,27
C,1,533,624,438,237,2521,1,1,1,1,1,0,15600,1060,-9008,-1376,-253,219
C,1,541,624,432,249,2524,1,1,1,1,1,0,15508,956,-9248,-992,90,211
C,1,540,645,439,266,2531,1,1,1,1,1,0,15516,1096,-9020,-859,-272,150
C,1,556,635,416,255,2517,1,1,1,1,1,0,15476,1420,-9096,-841,-193,206
C,1,540,642,432,246,2523,1,1,1,1,1,0,15428,1208,-9344,-569,-245,183
C,1,547,633,439,254,2519,1,1,1,1,1,0,15416,1288,-9292,-125,-34,44
C,1,539,639,443,254,2517,1,1,1,1,1,0,15380,1256,-9136,-982,-104,287
C,1,569,637,432,245,2525,1,1,1,1,1,0,15428,1244,-9028,-95,-158,132
C,1,557,642,463,235,2531,1,1,1,1,1,0,15632,1180,-8944,-671,53,363
C,1,535,641,443,247,2522,1,1,1,1,1,0,15432,936,-9096,-418,-162,58
C,1,551,627,430,256,2525,1,1,1,1,1,0,15616,1160,-8760,-309,-545,43
C,1,549,639,445,263,2523,1,1,1,1,1,0,15560,1292,-9132,-709,-341,173
C,1,530,627,432,255,2530,1,1,1,1,1,0,15372,1076,-9260,-227,-518,-80
C,1,511,646,443,243,2542,1,1,1,1,1,0,15396,1204,-9076,-691,-670,318
C,1,570,614,445,250,2528,1,1,1,1,1,0,15412,936,-9152,100,-775,-8
C,1,531,628,448,247,2523,1,1,1,1,1,0,15384,1024,-9176,101,-1209,-96
C,1,544,629,448,263,2533,1,1,1,1,1,0,15128,1064,-9500,-975,-1288,604
C,1,533,624,439,241,2536,1,1,1,1,1,0,15248,936,-9936,-679,-968,300
C,1,536,630,441,246,2527,1,1,1,1,1,0,15108,888,-10032,-949,-300,59
C,1,536,643,420,254,2538,1,1,1,1,1,0,15056,960,-9776,-483,-47,-160
C,1,545,640,450,262,2527,1,1,1,1,1,0,15292,1148,-9412,-719,128,-54
C,1,541,624,444,271,2524,1,1,1,1,1,0,15284,1080,-9308,-992,171,106
D,1,429,622,448,416,2470,1,0,0,1,1,1,17436,484,-5088,-232,32385,16688
D,1,426,614,448,413,2459,1,0,0,1,1,1,17436,484,-5088,-232,32385,16688
D,1,458,627,447,405,2462,1,0,0,1,1,1,17436,484,-5088,-232,32385,16688
D,1,461,615,434,410,2458,1,0,0,1,1,1,17436,484,-5088,-232,32385,16688
D,1,434,620,475,403,2448,1,0,0,1,1,1,17436,484,-5088,-232,32385,16688
D,1,421,623,450,407,2461,1,0,0,1,1,1,17436,484,-5088,-232,32385,16688
D,1,447,621,433,407,2469,1,0,0,1,1,1,17436,484,-5088,-232,32385,16688
D,1,447,623,453,398,2455,1,0,0,1,1,1,17436,484,-5088,-232,32385,16688
D,1,436,623,442,404,2461,1,0,0,1,1,1,17436,484,-5088,-232,32385,16688
D,1,433,625,449,389,2462,1,0,0,1,1,1,17436,484,-5088,-232,32385,16688
D,1,457,614,448,415,2465,1,0,0,1,1,1,17436,484,-5088,-232,32385,16688
D,1,447,624,451,406,2463,1,0,0,1,1,1,17436,484,-5088,-232,32385,16688
D,1,449,613,446,402,2471,1,0,0,1,1,1,17436,484,-5088,-232,32385,16688
D,1,459,633,450,400,2463,1,0,0,1,1,1,17436,484,-5088,-232,32385,16688
D,1,422,614,443,409,2463,1,0,0,1,1,1,17436,484,-5088,-232,32385,16688
D,1,411,608,438,393,2453,1,0,0,1,1,1,17436,484,-5088,-232,32385,16688
D,1,414,617,455,401,2467,1,0,0,1,1,1,17436,484,-5088,-232,32385,16688
D,1,423,594,440,386,2461,1,0,0,1,1,1,17436,484,-5088,-232,32385,16688
D,1,432,595,436,394,2451,1,0,0,1,1,1,17436,484,-5088,-232,32385,16688
D,1,412,592,446,399,2463,1,0,0,1,1,1,17436,484,-5088,-232,32385,16688
D,1,414,612,444,388,2453,1,0,0,1,1,1,17436,484,-5088,-232,32385,16688
D,1,399,614,446,384,2451,1,0,0,1,1,1,17436,484,-5088,-232,32385,16688
D,1,442,592,463,384,2457,1,0,0,1,1,1,17436,484,-5088,-232,32385,16688
D,1,405,594,448,374,2465,1,0,0,1,1,1,17436,484,-5088,-232,32385,16688
D,1,400,599,451,397,2448,1,0,0,1,1,1,17436,484,-5088,-232,32385,16688
D,1,432,604,434,384,2463,1,0,0,1,1,1,17436,484,-5088,-232,32385,16688
D,1,419,604,460,398,2463,1,0,0,1,1,1,17436,484,-5088,-232,32385,16688
D,1,419,607,447,394,2455,1,0,0,1,1,1,17436,484,-5088,-232,32385,16688
D,1,427,615,446,390,2455,1,0,0,1,1,1,17436,484,-5088,-232,32385,16688
D,1,418,620,457,389,2454,1,0,0,1,1,1,17436,484,-5088,-232,32385,16688
D,1,379,603,418,439,2512,1,0,0,1,1,1,4188,-12108,-22340,5733,-1316,-641
D,1,398,325,425,463,2519,1,0,0,1,1,1,4188,-12108,-22340,5733,-1316,-641
D,1,391,620,429,475,2516,1,0,0,1,1,1,4188,-12108,-22340,5733,-1316,-641
D,1,397,633,423,490,2512,1,0,0,1,1,1,4188,-12108,-22340,5733,-1316,-641
D,1,400,638,432,486,2507,1,0,0,1,1,1,4188,-12108,-22340,5733,-1316,-641
D,1,411,637,433,492,2501,1,0,0,1,1,1,4188,-12108,-22340,5733,-1316,-641
D,1,418,635,439,498,2506,1,0,0,1,1,1,4188,-12108,-22340,5733,-1316,-641
D,1,414,641,433,505,2503,1,0,0,1,1,1,4188,-12108,-22340,5733,-1316,-641
D,1,406,630,432,495,2499,1,0,0,1,1,1,4188,-12108,-22340,5733,-1316,-641
D,1,407,634,432,505,2509,1,0,0,1,1,1,4188,-12108,-22340,5733,-1316,-641
D,1,419,645,439,500,2510,1,0,0,1,1,1,4188,-12108,-22340,5733,-1316,-641
D,1,411,637,426,506,2503,1,0,0,1,1,1,4188,-12108,-22340,5733,-1316,-641
D,1,404,643,444,499,2500,1,0,0,1,1,1,4188,-12108,-22340,5733,-1316,-641
D,1,421,650,439,505,2501,1,0,0,1,1,1,4188,-12108,-22340,5733,-1316,-641
D,1,411,647,442,502,2510,1,0,0,1,1,1,4188,-12108,-22340,5733,-1316,-641
D,1,432,644,437,501,2512,1,0,0,1,1,1,4188,-12108,-22340,5733,-1316,-641
D,1,419,643,443,509,2505,1,0,0,1,1,1,4188,-12108,-22340,5733,-1316,-641
D,1,422,631,432,507,2513,1,0,0,1,1,1,4188,-12108,-22340,5733,-1316,-641
D,1,429,642,439,505,2509,1,0,0,1,1,1,4188,-12108,-22340,5733,-1316,-641
D,1,416,650,442,507,2503,1,0,0,1,1,1,4188,-12108,-22340,5733,-1316,-641
D,1,428,647,443,509,2497,1,0,0,1,1,1,4188,-12108,-22340,5733,-1316,-641
D,1,420,654,448,497,2498,1,0,0,1,1,1,4188,-12108,-22340,5733,-1316,-641
D,1,417,651,452,506,2491,1,0,0,1,1,1,4188,-12108,-22340,5733,-1316,-641
D,1,411,647,446,506,2491,1,0,0,1,1,1,4188,-12108,-22340,5733,-1316,-641
D,1,438,641,433,505,2505,1,0,0,1,1,1,4188,-12108,-22340,5733,-1316,-641
D,1,429,643,447,511,2506,1,0,0,1,1,1,4188,-12108,-22340,5733,-1316,-641
D,1,422,641,448,506,2490,1,0,0,1,1,1,4188,-12108,-22340,5733,-1316,-641
D,1,432,653,445,503,2506,1,0,0,1,1,1,4188,-12108,-22340,5733,-1316,-641
D,1,426,639,448,503,2502,1,0,0,1,1,1,4188,-12108,-22340,5733,-1316,-641
D,1,429,659,434,500,2502,1,0,0,1,1,1,4188,-12108,-22340,5733,-1316,-641
D,1,398,592,436,507,2474,1,0,0,1,1,1,15096,-6572,-6468,4122,1388,-5552
D,1,401,592,441,496,2481,1,0,0,1,1,1,15096,-6572,-6468,4122,1388,-5552
D,1,401,593,423,502,2479,1,0,0,1,1,1,15096,-6572,-6468,4122,1388,-5552
D,1,426,575,455,508,2480,1,0,0,1,1,1,15096,-6572,-6468,4122,1388,-5552
D,1,403,592,432,502,2493,1,0,0,1,1,1,15096,-6572,-6468,4122,1388,-5552
D,1,420,598,442,511,2480,1,0,0,1,1,1,15096,-6572,-6468,4122,1388,-5552
D,1,430,591,432,510,2484,1,0,0,1,1,1,15096,-6572,-6468,4122,1388,-5552
D,1,418,588,438,511,2484,1,0,0,1,1,1,15096,-6572,-6468,4122,1388,-5552
D,1,419,595,451,511,2480,1,0,0,1,1,1,15096,-6572,-6468,4122,1388,-5552
D,1,432,592,455,508,2486,1,0,0,1,1,1,15096,-6572,-6468,4122,1388,-5552
D,1,425,601,427,528,2474,1,0,0,1,1,1,15096,-6572,-6468,4122,1388,-5552
D,1,430,579,443,511,2480,1,0,0,1,1,1,15096,-6572,-6468,4122,1388,-5552
D,1,439,605,428,511,2479,1,0,0,1,1,1,15096,-6572,-6468,4122,1388,-5552
D,1,409,582,435,510,2481,1,0,0,1,1,1,15096,-6572,-6468,4122,1388,-5552
D,1,443,602,431,501,2480,1,0,0,1,1,1,15096,-6572,-6468,4122,1388,-5552
D,1,417,612,446,507,2481,1,0,0,1,1,1,15096,-6572,-6468,4122,1388,-5552
D,1,430,598,447,528,2486,1,0,0,1,1,1,15096,-6572,-6468,4122,1388,-5552
D,1,437,594,455,499,2483,1,0,0,1,1,1,15096,-6572,-6468,4122,1388,-5552
D,1,436,609,464,529,2479,1,0,0,1,1,1,15096,-6572,-6468,4122,1388,-5552
D,1,443,606,443,544,2470,1,0,0,1,1,1,15096,-6572,-6468,4122,1388,-5552
D,1,425,605,449,527,2480,1,0,0,1,1,1,15096,-6572,-6468,4122,1388,-5552
D,1,434,596,464,523,2480,1,0,0,1,1,1,15096,-6572,-6468,4122,1388,-5552
D,1,415,621,448,511,2480,1,0,0,1,1,1,15096,-6572,-6468,4122,1388,-5552
D,1,448,604,452,526,2479,1,0,0,1,1,1,15096,-6572,-6468,4122,1388,-5552
D,1,442,604,453,529,2479,1,0,0,1,1,1,15096,-6572,-6468,4122,1388,-5552
D,1,447,607,451,529,2489,1,0,0,1,1,1,15096,-6572,-6468,4122,1388,-5552
D,1,439,605,458,528,2474,1,0,0,1,1,1,15096,-6572,-6468,4122,1388,-5552
D,1,443,614,470,523,2485,1,0,0,1,1,1,15096,-6572,-6468,4122,1388,-5552
D,1,463,624,460,528,2482,1,0,0,1,1,1,15096,-6572,-6468,4122,1388,-5552
D,1,462,623,464,528,2479,1,0,0,1,1,1,15096,-6572,-6468,4122,1388,-5552
D,1,441,596,493,501,2479,1,0,0,1,1,1,9852,1172,-9600,-7803,13025,-6231
D,1,464,624,432,544,2475,1,0,0,1,1,1,9852,1172,-9600,-7803,13025,-6231
D,1,466,598,467,495,2482,1,0,0,1,1,1,9852,1172,-9600,-7803,13025,-6231
D,1,433,620,475,495,2500,1,0,0,1,1,1,9852,1172,-9600,-7803,13025,-6231
D,1,432,622,427,539,2477,1,0,0,1,1,1,9852,1172,-9600,-7803,13025,-6231
D,1,439,607,466,417,2488,1,0,0,1,1,1,9852,1172,-9600,-7803,13025,-6231
D,1,448,614,432,435,2487,1,0,1,1,1,1,9852,1172,-9600,-7803,13025,-6231
D,1,457,607,447,413,2493,1,0,0,1,1,1,9852,1172,-9600,-7803,13025,-6231
D,1,464,498,444,509,2482,1,0,0,1,1,1,9852,1172,-9600,-7803,13025,-6231
D,1,460,528,448,511,2489,1,0,0,1,1,1,9852,1172,-9600,-7803,13025,-6231
D,1,443,511,436,466,2490,1,0,0,1,1,1,9852,1172,-9600,-7803,13025,-6231
D,1,439,427,445,432,2491,1,0,0,1,1,1,9852,1172,-9600,-7803,13025,-6231
D,1,451,576,463,506,2479,1,0,0,1,1,1,9852,1172,-9600,-7803,13025,-6231
D,1,434,598,442,497,2497,1,0,0,1,1,1,9852,1172,-9600,-7803,13025,-6231
D,1,461,592,448,526,2485,1,0,0,1,1,1,9852,1172,-9600,-7803,13025,-6231
D,1,447,603,446,528,2495,1,0,0,1,1,1,9852,1172,-9600,-7803,13025,-6231
D,1,474,605,432,541,2483,1,0,0,1,1,1,9852,1172,-9600,-7803,13025,-6231
D,1,466,605,443,534,2487,1,0,0,1,1,1,9852,1172,-9600,-7803,13025,-6231
D,1,469,599,458,539,2492,1,0,0,1,1,1,9852,1172,-9600,-7803,13025,-6231
D,1,459,587,439,535,2484,1,0,0,1,1,1,9852,1172,-9600,-7803,13025,-6231
D,1,467,604,453,535,2499,1,0,0,1,1,1,9852,1172,-9600,-7803,13025,-6231
D,1,447,592,450,533,2482,1,0,0,1,1,1,9852,1172,-9600,-7803,13025,-6231
D,1,453,597,454,557,2483,1,0,0,1,1,1,9852,1172,-9600,-7803,13025,-6231
D,1,464,592,463,534,2480,1,0,0,1,1,1,9852,1172,-9600,-7803,13025,-6231
D,1,455,589,464,511,2481,1,0,0,1,1,1,9852,1172,-9600,-7803,13025,-6231
D,1,479,581,458,546,2483,1,0,0,1,1,1,9852,1172,-9600,-7803,13025,-6231
D,1,465,592,432,529,2480,1,0,1,1,1,1,9852,1172,-9600,-7803,13025,-6231
D,1,464,609,442,527,2480,1,0,0,1,1,1,9852,1172,-9600,-7803,13025,-6231
D,1,464,590,450,530,2480,1,0,0,1,1,1,9852,1172,-9600,-7803,13025,-6231
D,1,446,595,464,528,2484,1,0,0,1,1,1,9852,1172,-9600,-7803,13025,-6231
D,1,497,717,432,336,2511,1,1,1,1,1,1,9852,1172,-9600,-7803,13025,-6231
D,1,495,730,425,336,2529,1,1,1,1,1,1,9852,1172,-9600,-7803,13025,-6231
D,1,454,717,442,350,2513,1,1,1,1,1,1,9852,1172,-9600,-7803,13025,-6231
D,1,487,735,112,322,2527,1,1,1,1,1,1,9852,1172,-9600,-7803,13025,-6231
D,1,500,665,121,337,2535,1,1,1,1,1,1,9852,1172,-9600,-7803,13025,-6231
D,1,464,0,567,355,2522,1,1,1,1,1,1,9852,1172,-9600,-7803,13025,-6231
D,1,505,0,582,358,2517,1,1,1,1,1,1,9852,1172,-9600,-7803,13025,-6231
D,1,511,0,587,350,2525,1,1,1,1,1,1,9852,1172,-9600,-7803,13025,-6231
D,1,510,0,580,357,2528,1,1,1,1,1,1,9852,1172,-9600,-7803,13025,-6231
D,1,511,794,591,357,2521,1,1,1,1,1,1,9852,1172,-9600,-7803,13025,-6231
D,1,500,805,576,358,2527,1,1,1,1,1,1,9852,1172,-9600,-7803,13025,-6231
D,1,525,816,572,365,2523,1,1,1,1,1,1,9852,1172,-9600,-7803,13025,-6231
D,1,528,817,583,355,2521,1,1,1,1,1,1,9852,1172,-9600,-7803,13025,-6231
D,1,511,816,560,368,2519,1,1,1,1,1,1,9852,1172,-9600,-7803,13025,-6231
D,1,532,793,564,368,2519,1,1,1,1,1,1,9852,1172,-9600,-7803,13025,-6231
D,1,511,789,589,346,2530,1,1,1,1,1,1,9852,1172,-9600,-7803,13025,-6231
D,1,511,781,550,364,2529,1,1,1,1,1,1,9852,1172,-9600,-7803,13025,-6231
D,1,537,0,467,357,2527,1,1,1,1,1,1,9852,1172,-9600,-7803,13025,-6231
D,1,466,0,419,390,2528,1,1,1,1,1,1,9852,1172,-9600,-7803,13025,-6231
D,1,443,0,384,362,2517,1,0,1,1,1,1,9852,1172,-9600,-7803,13025,-6231
D,1,436,0,411,389,2518,1,0,1,1,1,1,9852,1172,-9600,-7803,13025,-6231
D,1,438,0,404,410,2509,1,0,0,1,1,1,9852,1172,-9600,-7803,13025,-6231
D,1,445,0,418,409,101,1,0,0,1,1,1,9852,1172,-9600,-7803,13025,-6231
D,1,432,0,418,406,98,1,0,0,1,1,1,9852,1172,-9600,-7803,13025,-6231
D,1,439,0,416,403,233,1,0,0,1,1,1,9852,1172,-9600,-7803,13025,-6231
D,1,402,0,432,410,2488,1,0,0,1,1,1,9852,1172,-9600,-7803,13025,-6231
D,1,416,575,447,415,2475,1,0,0,1,1,1,9852,1172,-9600,-7803,13025,-6231
D,1,431,587,0,371,2469,1,0,0,1,1,1,9852,1172,-9600,-7803,13025,-6231
D,1,421,372,0,379,2469,1,0,0,1,1,1,9852,1172,-9600,-7803,13025,-6231
D,1,433,387,0,372,2461,1,0,0,1,1,1,9852,1172,-9600,-7803,13025,-6231
E,1,367,554,406,197,2453,0,0,0,1,1,0,9852,1172,-9600,-7803,13025,-6231
E,1,359,544,415,192,2452,0,0,0,1,1,0,9852,1172,-9600,-7803,13025,-6231
E,1,343,549,406,201,2451,0,0,0,1,1,0,9852,1172,-9600,-7803,13025,-6231
E,1,368,556,403,197,2451,0,0,0,1,1,0,9852,1172,-9600,-7803,13025,-6231
E,1,358,549,418,205,2449,0,0,0,1,1,0,9852,1172,-9600,-7803,13025,-6231
E,1,366,559,406,197,2448,0,0,0,1,1,0,9852,1172,-9600,-7803,13025,-6231
E,1,354,547,403,179,2449,0,0,0,1,1,0,9852,1172,-9600,-7803,13025,-6231
E,1,352,544,414,190,2446,0,0,0,1,1,0,9852,1172,-9600,-7803,13025,-6231
E,1,358,534,405,192,2446,0,0,0,1,1,0,9852,1172,-9600,-7803,13025,-6231
E,1,358,481,411,193,2448,0,0,0,1,1,0,9852,1172,-9600,-7803,13025,-6231
E,1,367,553,410,163,2448,0,0,0,1,1,0,9852,1172,-9600,-7803,13025,-6231
E,1,352,161,402,182,2451,0,0,0,1,1,0,9852,1172,-9600,-7803,13025,-6231
E,1,363,234,400,177,2448,0,0,0,1,1,0,9852,1172,-9600,-7803,13025,-6231
E,1,355,304,413,192,2457,0,0,0,1,1,0,9852,1172,-9600,-7803,13025,-6231
E,1,363,305,412,181,2450,0,0,0,1,1,0,9852,1172,-9600,-7803,13025,-6231
E,1,353,367,411,179,2450,0,0,0,1,1,0,9852,1172,-9600,-7803,13025,-6231
E,1,359,554,405,191,2448,0,0,0,1,1,0,9852,1172,-9600,-7803,13025,-6231
E,1,359,551,402,182,2454,0,0,0,1,1,0,9852,1172,-9600,-7803,13025,-6231
E,1,345,550,400,175,2447,0,0,0,1,1,0,9852,1172,-9600,-7803,13025,-6231
E,1,365,554,406,177,2453,0,0,0,1,1,0,9852,1172,-9600,-7803,13025,-6231
E,1,363,482,407,181,2451,0,0,0,1,1,0,9852,1172,-9600,-7803,13025,-6231
E,1,368,467,397,185,2448,0,0,0,1,1,0,9852,1172,-9600,-7803,13025,-6231
E,1,370,493,416,176,2451,0,0,0,1,1,0,9852,1172,-9600,-7803,13025,-6231
E,1,353,538,391,186,2447,0,0,0,1,1,0,9852,1172,-9600,-7803,13025,-6231
E,1,351,432,405,176,2444,0,0,0,1,1,0,9852,1172,-9600,-7803,13025,-6231
E,1,354,443,413,178,2448,0,0,0,1,1,0,9852,1172,-9600,-7803,13025,-6231
E,1,362,376,413,189,2450,0,0,0,1,1,0,9852,1172,-9600,-7803,13025,-6231
E,1,343,485,410,187,2448,0,0,0,1,1,0,9852,1172,-9600,-7803,13025,-6231
E,1,369,553,411,177,2451,0,0,0,1,1,0,9852,1172,-9600,-7803,13025,-6231
E,1,342,507,441,176,2449,0,0,0,1,1,0,9852,1172,-9600,-7803,13025,-6231
E,1,370,533,0,193,2448,0,0,0,1,1,0,9852,1172,-9600,-7803,13025,-6231
E,1,349,538,0,175,2457,0,0,0,1,1,0,9852,1172,-9600,-7803,13025,-6231
E,1,322,545,0,177,2465,0,0,0,1,1,0,9852,1172,-9600,-7803,13025,-6231
E,1,357,550,0,172,2473,0,0,0,1,1,0,9852,1172,-9600,-7803,13025,-6231
E,1,342,560,0,177,2466,0,0,0,1,1,0,9852,1172,-9600,-7803,13025,-6231
E,1,362,559,0,173,2455,0,0,0,1,1,0,9852,1172,-9600,-7803,13025,-6231
E,1,361,558,0,181,2471,0,0,0,1,1,0,9852,1172,-9600,-7803,13025,-6231
E,1,355,560,0,183,2461,0,0,0,1,1,0,9852,1172,-9600,-7803,13025,-6231
E,1,349,555,0,176,2469,0,0,0,1,1,0,9852,1172,-9600,-7803,13025,-6231
E,1,349,539,0,189,2461,0,0,0,1,1,0,9852,1172,-9600,-7803,13025,-6231
E,1,363,560,0,163,2468,0,0,0,1,1,0,9852,1172,-9600,-7803,13025,-6231
E,1,352,550,0,179,2463,0,0,0,1,1,0,9852,1172,-9600,-7803,13025,-6231
E,1,350,545,0,174,2459,0,0,0,1,1,0,9852,1172,-9600,-7803,13025,-6231
E,1,332,555,0,150,2463,0,0,0,1,1,0,9852,1172,-9600,-7803,13025,-6231
E,1,367,554,0,175,2461,0,0,0,1,1,0,9852,1172,-9600,-7803,13025,-6231
E,1,346,553,0,180,2459,0,0,0,1,1,0,9852,1172,-9600,-7803,13025,-6231
E,1,367,553,0,195,2470,0,0,0,1,1,0,9852,1172,-9600,-7803,13025,-6231
E,1,365,559,0,183,2458,0,0,0,1,1,0,9852,1172,-9600,-7803,13025,-6231
E,1,358,553,0,181,2461,0,0,0,1,1,0,9852,1172,-9600,-7803,13025,-6231
E,1,348,560,0,183,2467,0,0,0,1,1,0,9852,1172,-9600,-7803,13025,-6231
E,1,367,550,0,204,2465,0,0,0,1,1,0,9852,1172,-9600,-7803,13025,-6231
E,1,362,546,0,198,2473,0,0,0,1,1,0,9852,1172,-9600,-7803,13025,-6231
E,1,348,541,0,196,2463,0,0,0,1,1,0,9852,1172,-9600,-7803,13025,-6231
E,1,368,555,0,192,2467,0,0,0,1,1,0,9852,1172,-9600,-7803,13025,-6231
E,1,364,550,0,192,2462,0,0,0,1,1,0,9852,1172,-9600,-7803,13025,-6231
E,1,354,547,0,197,2470,0,0,0,1,1,0,9852,1172,-9600,-7803,13025,-6231
E,1,352,543,0,189,2466,0,0,0,1,1,0,9852,1172,-9600,-7803,13025,-6231
E,1,372,553,0,185,2462,0,0,0,1,1,0,9852,1172,-9600,-7803,13025,-6231
E,1,357,555,0,204,2462,0,0,0,1,1,0,9852,1172,-9600,-7803,13025,-6231
E,1,368,550,0,187,2471,0,0,0,1,1,0,9852,1172,-9600,-7803,13025,-6231
E,1,351,0,395,182,2422,0,0,0,1,1,0,9852,1172,-9600,-7803,13025,-6231
E,1,337,0,382,200,2418,0,0,0,1,1,0,9852,1172,-9600,-7803,13025,-6231
E,1,354,0,400,189,2421,0,0,0,1,1,0,9852,1172,-9600,-7803,13025,-6231
E,1,335,0,399,183,2421,0,0,0,1,1,0,9852,1172,-9600,-7803,13025,-6231
E,1,355,0,384,188,2433,0,0,0,1,1,0,9852,1172,-9600,-7803,13025,-6231
E,1,349,0,378,182,2429,0,0,0,1,1,0,9852,1172,-9600,-7803,13025,-6231
E,1,363,496,400,182,2429,0,0,0,1,1,0,9852,1172,-9600,-7803,13025,-6231
E,1,357,498,399,179,2417,0,0,0,1,1,0,9852,1172,-9600,-7803,13025,-6231
E,1,338,510,389,171,2426,0,0,0,1,1,0,9852,1172,-9600,-7803,13025,-6231
E,1,363,503,392,170,2431,0,0,0,1,1,0,9852,1172,-9600,-7803,13025,-6231
E,1,336,509,401,167,2425,0,0,0,1,1,0,9852,1172,-9600,-7803,13025,-6231
E,1,338,496,396,189,2423,0,0,0,1,1,0,9852,1172,-9600,-7803,13025,-6231
E,1,339,508,389,176,2418,0,0,0,1,1,0,9852,1172,-9600,-7803,13025,-6231
E,1,349,511,395,208,2419,0,0,0,1,1,0,9852,1172,-9600,-7803,13025,-6231
E,1,374,511,392,204,2422,0,0,0,1,1,0,9852,1172,-9600,-7803,13025,-6231
E,1,350,507,402,192,2416,0,0,0,1,1,0,9852,1172,-9600,-7803,13025,-6231
E,1,349,527,415,176,2416,0,0,0,1,1,0,9852,1172,-9600,-7803,13025,-6231
E,1,358,525,400,181,2417,0,0,0,1,1,0,9852,1172,-9600,-7803,13025,-6231
E,1,355,510,402,191,2427,0,0,0,1,1,0,9852,1172,-9600,-7803,13025,-6231
E,1,346,511,397,194,2419,0,0,0,1,1,0,9852,1172,-9600,-7803,13025,-6231
E,1,351,493,417,182,2426,0,0,0,1,1,0,9852,1172,-9600,-7803,13025,-6231
E,1,365,511,396,179,2431,0,0,0,1,1,0,9852,1172,-9600,-7803,13025,-6231
E,1,354,489,395,180,2416,0,0,0,1,1,0,9852,1172,-9600,-7803,13025,-6231
E,1,358,511,405,183,2422,0,0,0,1,1,0,9852,1172,-9600,-7803,13025,-6231
E,1,342,507,400,181,2416,0,0,0,1,1,0,9852,1172,-9600,-7803,13025,-6231
E,1,358,455,405,194,2427,0,0,0,1,1,0,9852,1172,-9600,-7803,13025,-6231
E,1,355,450,407,197,2416,0,0,0,1,1,0,9852,1172,-9600,-7803,13025,-6231
E,1,361,511,413,196,2426,0,0,0,1,1,0,9852,1172,-9600,-7803,13025,-6231
E,1,354,511,399,185,2421,0,0,0,1,1,0,9852,1172,-9600,-7803,13025,-6231
E,1,365,511,412,203,2422,0,0,0,1,1,0,9852,1172,-9600,-7803,13025,-6231
E,1,368,527,398,195,2438,0,0,0,1,1,0,9852,1172,-9600,-7803,13025,-6231
E,1,368,530,403,201,2444,0,0,0,1,1,0,9852,1172,-9600,-7803,13025,-6231
E,1,366,527,400,191,2435,0,0,0,1,1,0,9852,1172,-9600,-7803,13025,-6231
E,1,375,528,400,199,2434,0,0,0,1,1,0,9852,1172,-9600,-7803,13025,-6231
E,1,384,531,419,202,2446,0,0,0,1,1,0,9852,1172,-9600,-7803,13025,-6231
E,1,372,511,406,176,2448,0,0,0,1,1,0,9852,1172,-9600,-7803,13025,-6231
E,1,381,525,387,190,2434,0,0,0,1,1,0,9852,1172,-9600,-7803,13025,-6231
E,1,373,528,404,185,2447,0,0,0,1,1,0,9852,1172,-9600,-7803,13025,-6231
E,1,368,0,0,170,2445,0,0,0,1,1,0,9852,1172,-9600,-7803,13025,-6231
E,1,382,0,272,178,2439,0,0,0,1,1,0,9852,1172,-9600,-7803,13025,-6231
E,1,374,0,299,205,2448,0,0,0,1,1,0,9852,1172,-9600,-7803,13025,-6231
E,1,375,0,280,202,2438,0,0,0,1,1,0,9852,1172,-9600,-7803,13025,-6231
E,1,384,527,299,193,2441,0,0,0,1,1,0,9852,1172,-9600,-7803,13025,-6231
E,1,387,528,307,202,2449,0,0,0,1,1,0,9852,1172,-9600,-7803,13025,-6231
E,1,368,534,283,189,2448,0,0,0,1,1,0,9852,1172,-9600,-7803,13025,-6231
E,1,374,545,272,181,2442,0,0,0,1,1,0,9852,1172,-9600,-7803,13025,-6231
E,1,378,534,314,198,2438,0,0,0,1,1,0,9852,1172,-9600,-7803,13025,-6231
E,1,377,538,306,182,2446,0,0,0,1,1,0,9852,1172,-9600,-7803,13025,-6231
E,1,396,528,281,195,2437,0,0,0,1,1,0,9852,1172,-9600,-7803,13025,-6231
E,1,336,555,300,201,2435,0,0,0,1,1,0,9852,1172,-9600,-7803,13025,-6231
E,1,407,498,333,157,2473,0,0,0,1,1,0,9852,1172,-9600,-7803,13025,-6231
E,1,336,511,362,161,2464,0,0,0,1,1,0,9852,1172,-9600,-7803,13025,-6231
E,1,400,511,337,215,2426,0,0,0,1,1,0,9852,1172,-9600,-7803,13025,-6231
E,1,354,545,274,221,2423,0,0,0,1,1,0,9852,1172,-9600,-7803,13025,-6231
E,1,360,503,322,176,2437,0,0,0,1,1,0,9852,1172,-9600,-7803,13025,-6231
E,1,357,526,321,209,2432,0,0,0,1,1,0,9852,1172,-9600,-7803,13025,-6231
E,1,368,511,308,176,2448,0,0,0,1,1,0,9852,1172,-9600,-7803,13025,-6231
E,1,381,534,332,180,2441,0,0,0,1,1,0,9852,1172,-9600,-7803,13025,-6231
E,1,379,532,354,204,2448,0,0,0,1,1,0,9852,1172,-9600,-7803,13025,-6231
E,1,385,533,347,187,2439,0,0,0,1,1,0,9852,1172,-9600,-7803,13025,-6231
E,1,343,511,400,205,2435,0,0,0,1,1,0,9852,1172,-9600,-7803,13025,-6231
E,1,347,508,397,209,2439,0,0,0,1,1,0,9852,1172,-9600,-7803,13025,-6231
E,1,336,503,411,201,2433,0,0,0,1,1,0,9852,1172,-9600,-7803,13025,-6231
E,1,349,511,400,207,2438,0,0,0,1,1,0,9852,1172,-9600,-7803,13025,-6231
E,1,355,511,400,183,2448,0,0,0,1,1,0,9852,1172,-9600,-7803,13025,-6231
E,1,357,511,417,208,2166,0,0,0,1,1,0,9852,1172,-9600,-7803,13025,-6231
E,1,368,545,386,205,2432,0,0,0,1,1,0,9852,1172,-9600,-7803,13025,-6231
E,1,339,511,0,176,2427,0,0,0,1,1,0,9852,1172,-9600,-7803,13025,-6231
E,1,336,511,411,205,2443,0,0,0,1,1,0,9852,1172,-9600,-7803,13025,-6231
E,1,361,528,421,199,2437,0,0,0,1,1,0,9852,1172,-9600,-7803,13025,-6231
E,1,362,558,11,197,2438,0,0,0,1,1,0,9852,1172,-9600,-7803,13025,-6231
E,1,359,535,336,208,2430,0,0,0,1,1,0,9852,1172,-9600,-7803,13025,-6231
E,1,357,550,298,205,2431,0,0,0,1,1,0,9852,1172,-9600,-7803,13025,-6231
E,1,354,538,0,189,2441,0,0,0,1,1,0,9852,1172,-9600,-7803,13025,-6231
E,1,341,546,0,192,2448,0,0,0,1,1,0,9852,1172,-9600,-7803,13025,-6231
E,1,358,540,391,208,2445,0,0,0,1,1,0,9852,1172,-9600,-7803,13025,-6231
E,1,351,525,373,221,2437,0,0,0,1,1,0,9852,1172,-9600,-7803,13025,-6231
E,1,353,538,390,198,2443,0,0,0,1,1,0,9852,1172,-9600,-7803,13025,-6231
E,1,355,545,376,211,2437,0,0,0,1,1,0,9852,1172,-9600,-7803,13025,-6231
E,1,403,502,375,221,2446,0,0,0,1,1,0,9852,1172,-9600,-7803,13025,-6231
E,1,310,490,400,166,2449,0,0,0,1,1,0,9852,1172,-9600,-7803,13025,-6231
E,1,357,529,341,190,2422,0,0,0,1,1,0,9852,1172,-9600,-7803,13025,-6231
E,1,391,511,320,223,2416,0,0,0,1,1,0,9852,1172,-9600,-7803,13025,-6231
E,1,362,530,363,196,2426,0,0,0,1,1,0,9852,1172,-9600,-7803,13025,-6231
E,1,342,564,320,186,2438,0,0,0,1,1,0,9852,1172,-9600,-7803,13025,-6231
E,1,350,542,346,217,2450,0,0,0,1,1,0,9852,1172,-9600,-7803,13025,-6231
E,1,367,544,336,198,2447,0,0,0,1,1,0,9852,1172,-9600,-7803,13025,-6231
E,1,346,529,357,202,2435,0,0,0,1,1,0,9852,1172,-9600,-7803,13025,-6231
E,1,357,537,336,214,2441,0,0,0,1,1,0,9852,1172,-9600,-7803,13025,-6231
E,1,336,532,341,206,2438,0,0,0,1,1,0,9852,1172,-9600,-7803,13025,-6231
F,1,1675,1372,797,237,2477,0,1,1,1,1,1,9852,1172,-9600,-7803,13025,-6231
F,1,1702,1331,855,123,2507,0,1,1,1,1,1,9852,1172,-9600,-7803,13025,-6231
F,1,1695,1360,767,225,2477,0,1,1,1,1,1,9852,1172,-9600,-7803,13025,-6231
F,1,1712,1367,781,238,2483,0,1,1,1,1,1,9852,1172,-9600,-7803,13025,-6231
F,1,1705,1375,789,193,2478,0,1,1,1,1,1,9852,1172,-9600,-7803,13025,-6231
F,1,1695,1359,784,224,2494,0,1,1,1,1,1,9852,1172,-9600,-7803,13025,-6231
F,1,1703,1357,785,209,2491,0,1,1,1,1,1,9852,1172,-9600,-7803,13025,-6231
F,1,1678,1357,785,217,2480,0,1,1,1,1,1,9852,1172,-9600,-7803,13025,-6231
F,1,1695,1359,784,215,2479,0,1,1,1,1,1,9852,1172,-9600,-7803,13025,-6231
F,1,1683,1353,798,225,2469,0,1,1,1,1,1,9852,1172,-9600,-7803,13025,-6231
F,1,1693,1343,787,214,2491,0,1,1,1,1,1,9852,1172,-9600,-7803,13025,-6231
F,1,1695,1330,789,207,2486,0,1,1,1,1,1,9852,1172,-9600,-7803,13025,-6231
F,1,1706,1394,717,240,2533,0,1,1,1,1,1,9852,1172,-9600,-7803,13025,-6231
F,1,1680,1353,767,215,2481,0,1,1,1,1,1,9852,1172,-9600,-7803,13025,-6231
F,1,1665,1355,793,199,2491,0,1,1,1,1,1,9852,1172,-9600,-7803,13025,-6231
F,1,1686,1347,777,222,2486,0,1,1,1,1,1,9852,1172,-9600,-7803,13025,-6231
F,1,1675,1343,770,208,2475,0,1,1,1,1,1,9852,1172,-9600,-7803,13025,-6231
F,1,1674,1347,778,230,2480,0,1,1,1,1,1,9852,1172,-9600,-7803,13025,-6231
F,1,1675,1348,784,209,2480,0,1,1,1,1,1,9852,1172,-9600,-7803,13025,-6231
F,1,1681,1360,780,208,2480,0,1,1,1,1,1,9852,1172,-9600,-7803,13025,-6231
F,1,1668,1335,760,208,2467,0,1,1,1,1,1,9852,1172,-9600,-7803,13025,-6231
F,1,1674,1351,788,231,2495,0,1,1,1,1,1,9852,1172,-9600,-7803,13025,-6231
F,1,1664,1341,788,219,2489,0,1,1,1,1,1,9852,1172,-9600,-7803,13025,-6231
F,1,1674,1375,782,144,2518,0,1,1,1,1,1,9852,1172,-9600,-7803,13025,-6231
F,1,1663,1341,785,215,2483,0,1,1,1,1,1,9852,1172,-9600,-7803,13025,-6231
F,1,1665,1329,786,225,2484,0,1,1,1,1,1,9852,1172,-9600,-7803,13025,-6231
F,1,1680,1347,775,234,2495,0,1,1,1,1,1,9852,1172,-9600,-7803,13025,-6231
F,1,1678,1339,785,225,2483,0,1,1,1,1,1,9852,1172,-9600,-7803,13025,-6231
F,1,1665,1328,781,229,2487,0,1,1,1,1,1,9852,1172,-9600,-7803,13025,-6231
F,1,1668,1328,784,222,2478,0,1,1,1,1,1,9852,1172,-9600,-7803,13025,-6231
F,1,816,912,576,206,2459,0,1,1,1,1,1,9852,1172,-9600,-7803,13025,-6231
F,1,804,910,576,208,2465,0,1,1,1,1,1,9852,1172,-9600,-7803,13025,-6231
F,1,812,918,565,199,2446,0,1,1,1,1,1,9852,1172,-9600,-7803,13025,-6231
F,1,844,944,581,210,2470,0,1,1,1,1,1,9852,1172,-9600,-7803,13025,-6231
F,1,811,950,602,208,2459,0,1,1,1,1,1,9852,1172,-9600,-7803,13025,-6231
F,1,845,925,606,219,2479,0,1,1,1,1,1,9852,1172,-9600,-7803,13025,-6231
F,1,838,944,601,214,2461,0,1,1,1,1,1,9852,1172,-9600,-7803,13025,-6231
F,1,814,954,628,214,2491,0,1,1,1,1,1,9852,1172,-9600,-7803,13025,-6231
F,1,850,947,594,208,2463,0,1,1,1,1,1,9852,1172,-9600,-7803,13025,-6231
F,1,854,941,589,199,2458,0,1,1,1,1,1,9852,1172,-9600,-7803,13025,-6231
F,1,864,935,601,209,2471,0,1,1,1,1,1,9852,1172,-9600,-7803,13025,-6231
F,1,862,941,589,208,2480,0,1,1,1,1,1,9852,1172,-9600,-7803,13025,-6231
F,1,836,931,603,217,2467,0,1,1,1,1,1,9852,1172,-9600,-7803,13025,-6231
F,1,859,945,602,224,2471,0,1,1,1,1,1,9852,1172,-9600,-7803,13025,-6231
F,1,896,914,614,210,2471,0,1,1,1,1,1,9852,1172,-9600,-7803,13025,-6231
F,1,886,959,614,239,2480,0,1,1,1,1,1,9852,1172,-9600,-7803,13025,-6231
F,1,933,935,609,215,2480,0,1,1,1,1,1,9852,1172,-9600,-7803,13025,-6231
F,1,903,950,604,234,2465,0,1,1,1,1,1,9852,1172,-9600,-7803,13025,-6231
F,1,909,986,585,245,2477,0,1,1,1,1,1,9852,1172,-9600,-7803,13025,-6231
F,1,908,961,612,214,2485,0,1,1,1,1,1,9852,1172,-9600,-7803,13025,-6231
F,1,912,961,607,218,2482,0,1,1,1,1,1,9852,1172,-9600,-7803,13025,-6231
F,1,944,965,624,214,2480,0,1,1,1,1,1,9852,1172,-9600,-7803,13025,-6231
F,1,915,944,592,237,2474,0,1,1,1,1,1,9852,1172,-9600,-7803,13025,-6231
F,1,943,964,604,211,2477,0,1,1,1,1,1,9852,1172,-9600,-7803,13025,-6231
F,1,931,957,609,229,2469,0,1,1,1,1,1,9852,1172,-9600,-7803,13025,-6231
F,1,929,965,592,208,2487,0,1,1,1,1,1,9852,1172,-9600,-7803,13025,-6231
F,1,924,955,614,223,2469,0,1,1,1,1,1,9852,1172,-9600,-7803,13025,-6231
F,1,929,966,609,217,2469,0,1,1,1,1,1,9852,1172,-9600,-7803,13025,-6231
F,1,976,955,624,218,2480,0,1,1,1,1,1,9852,1172,-9600,-7803,13025,-6231
F,1,969,967,639,169,2501,0,1,1,1,1,1,9852,1172,-9600,-7803,13025,-6231
F,1,1163,1165,701,209,2481,0,1,1,1,1,1,9852,1172,-9600,-7803,13025,-6231
F,1,1163,1155,714,206,2487,0,1,1,1,1,1,9852,1172,-9600,-7803,13025,-6231
F,1,1170,1163,715,223,2495,0,1,1,1,1,1,9852,1172,-9600,-7803,13025,-6231
F,1,1178,1164,722,211,2483,0,1,1,1,1,1,9852,1172,-9600,-7803,13025,-6231
F,1,1153,1173,717,210,2484,0,1,1,1,1,1,9852,1172,-9600,-7803,13025,-6231
F,1,1186,1155,701,226,2491,0,1,1,1,1,1,9852,1172,-9600,-7803,13025,-6231
F,1,1163,1169,695,220,2498,0,1,1,1,1,1,9852,1172,-9600,-7803,13025,-6231
F,1,1183,1155,703,233,2480,0,1,1,1,1,1,9852,1172,-9600,-7803,13025,-6231
F,1,1173,1153,705,208,2481,0,1,1,1,1,1,9852,1172,-9600,-7803,13025,-6231
F,1,1183,1166,720,223,2491,0,1,1,1,1,1,9852,1172,-9600,-7803,13025,-6231
F,1,1188,1161,694,224,2487,0,1,1,1,1,1,9852,1172,-9600,-7803,13025,-6231
F,1,1177,1155,706,224,2487,0,1,1,1,1,1,9852,1172,-9600,-7803,13025,-6231
F,1,1189,1161,701,217,2493,0,1,1,1,1,1,9852,1172,-9600,-7803,13025,-6231
F,1,1179,1168,701,229,2487,0,1,1,1,1,1,9852,1172,-9600,-7803,13025,-6231
F,1,1181,1162,694,212,2495,0,1,1,1,1,1,9852,1172,-9600,-7803,13025,-6231
F,1,1181,1148,698,217,2485,0,1,1,1,1,1,9852,1172,-9600,-7803,13025,-6231
F,1,1194,1156,702,219,2496,0,1,1,1,1,1,9852,1172,-9600,-7803,13025,-6231
F,1,1197,1167,706,228,2495,0,1,1,1,1,1,9852,1172,-9600,-7803,13025,-6231
F,1,1163,1161,705,206,2487,0,1,1,1,1,1,9852,1172,-9600,-7803,13025,-6231
F,1,1183,1171,710,224,2482,0,1,1,1,1,1,9852,1172,-9600,-7803,13025,-6231
F,1,1201,1169,712,227,2494,0,1,1,1,1,1,9852,1172,-9600,-7803,13025,-6231
F,1,1201,1163,691,220,2490,0,1,1,1,1,1,9852,1172,-9600,-7803,13025,-6231
F,1,1201,1171,711,217,2496,0,1,1,1,1,1,9852,1172,-9600,-7803,13025,-6231
F,1,1200,1168,702,228,2497,0,1,1,1,1,1,9852,1172,-9600,-7803,13025,-6231
F,1,1205,1167,706,225,2494,0,1,1,1,1,1,9852,1172,-9600,-7803,13025,-6231
F,1,1227,1168,706,225,2489,0,1,1,1,1,1,9852,1172,-9600,-7803,13025,-6231
F,1,1231,1168,717,226,2492,0,1,1,1,1,1,9852,1172,-9600,-7803,13025,-6231
F,1,1217,1171,711,209,2493,0,1,1,1,1,1,9852,1172,-9600,-7803,13025,-6231
F,1,1200,1173,698,210,2495,0,1,1,1,1,1,9852,1172,-9600,-7803,13025,-6231
F,1,1191,1201,677,240,2512,0,1,1,1,1,1,9852,1172,-9600,-7803,13025,-6231
F,1,1039,963,577,205,2465,0,1,1,1,1,1,9852,1172,-9600,-7803,13025,-6231
F,1,1040,966,567,178,2467,0,1,1,1,1,1,9852,1172,-9600,-7803,13025,-6231
F,1,1032,966,579,208,2446,0,1,1,1,1,1,9852,1172,-9600,-7803,13025,-6231
F,1,1038,975,563,193,2463,0,1,1,1,1,1,9852,1172,-9600,-7803,13025,-6231
F,1,1045,976,574,183,2461,0,1,1,1,1,1,9852,1172,-9600,-7803,13025,-6231
F,1,1069,980,596,183,2474,0,1,1,1,1,1,9852,1172,-9600,-7803,13025,-6231
F,1,1049,981,603,181,2484,0,1,1,1,1,1,9852,1172,-9600,-7803,13025,-6231
F,1,1088,1010,597,194,2471,0,1,1,1,1,1,9852,1172,-9600,-7803,13025,-6231
F,1,1110,1023,614,192,2464,0,1,1,1,1,1,9852,1172,-9600,-7803,13025,-6231
F,1,1122,999,625,198,2461,0,1,1,1,1,1,9852,1172,-9600,-7803,13025,-6231
F,1,1127,1008,613,204,2465,0,1,1,1,1,1,9852,1172,-9600,-7803,13025,-6231
F,1,1114,1010,622,178,88,0,1,1,1,1,1,9852,1172,-9600,-7803,13025,-6231
F,1,1133,1019,615,186,78,0,1,1,1,1,1,9852,1172,-9600,-7803,13025,-6231
F,1,1162,1020,615,208,2480,0,1,1,1,1,1,9852,1172,-9600,-7803,13025,-6231
F,1,1169,1041,650,215,2475,0,1,1,1,1,1,9852,1172,-9600,-7803,13025,-6231
F,1,1210,1054,643,208,2469,0,1,1,1,1,1,9852,1172,-9600,-7803,13025,-6231
F,1,1227,1054,634,222,2469,0,1,1,1,1,1,9852,1172,-9600,-7803,13025,-6231
F,1,1192,1072,624,226,2459,0,1,1,1,1,1,9852,1172,-9600,-7803,13025,-6231
F,1,1210,1065,651,209,2477,0,1,1,1,1,1,9852,1172,-9600,-7803,13025,-6231
F,1,1217,1061,651,228,2480,0,1,1,1,1,1,9852,1172,-9600,-7803,13025,-6231
F,1,1249,1054,666,210,2480,0,1,1,1,1,1,9852,1172,-9600,-7803,13025,-6231
F,1,1232,1058,651,207,2484,0,1,1,1,1,1,9852,1172,-9600,-7803,13025,-6231
F,1,1233,1071,654,221,2486,0,1,1,1,1,1,9852,1172,-9600,-7803,13025,-6231
F,1,1237,1073,656,221,2477,0,1,1,1,1,1,9852,1172,-9600,-7803,13025,-6231
F,1,1247,1077,656,210,2473,0,1,1,1,1,1,9852,1172,-9600,-7803,13025,-6231
F,1,1229,1069,642,205,2479,0,1,1,1,1,1,9852,1172,-9600,-7803,13025,-6231
F,1,1242,1063,656,223,2480,0,1,1,1,1,1,9852,1172,-9600,-7803,13025,-6231
F,1,1211,1090,638,236,2480,0,1,1,1,1,1,9852,1172,-9600,-7803,13025,-6231
F,1,1235,1041,665,192,2496,0,1,1,1,1,1,9852,1172,-9600,-7803,13025,-6231
F,1,1285,1065,558,258,2475,0,1,1,1,1,1,9852,1172,-9600,-7803,13025,-6231
F,1,1220,1015,647,209,75,0,1,1,1,1,1,9852,1172,-9600,-7803,13025,-6231
F,1,1219,1008,661,196,55,0,1,1,1,1,1,9852,1172,-9600,-7803,13025,-6231
F,1,1235,1035,655,201,62,0,1,1,1,1,1,9852,1172,-9600,-7803,13025,-6231
F,1,1247,1009,622,208,42,0,1,1,1,1,1,9852,1172,-9600,-7803,13025,-6231
F,1,1237,1023,617,235,48,0,1,1,1,1,1,9852,1172,-9600,-7803,13025,-6231
F,1,1234,1023,641,208,67,0,1,1,1,1,1,9852,1172,-9600,-7803,13025,-6231
F,1,1203,1045,666,174,90,0,1,1,1,1,1,9852,1172,-9600,-7803,13025,-6231
F,1,1232,1035,688,197,290,0,1,1,1,1,1,9852,1172,-9600,-7803,13025,-6231
F,1,1261,1018,638,198,60,0,1,1,1,1,1,9852,1172,-9600,-7803,13025,-6231
F,1,1258,1021,642,201,78,0,1,1,1,1,1,9852,1172,-9600,-7803,13025,-6231
F,1,1241,1020,640,192,60,0,1,1,1,1,1,9852,1172,-9600,-7803,13025,-6231
F,1,1248,1036,629,201,64,0,1,1,1,1,1,9852,1172,-9600,-7803,13025,-6231
F,1,1241,1015,650,227,101,0,1,1,1,1,1,9852,1172,-9600,-7803,13025,-6231
F,1,1227,1033,653,218,2482,0,1,1,1,1,1,9852,1172,-9600,-7803,13025,-6231
F,1,1235,1022,640,234,2491,0,1,1,1,1,1,9852,1172,-9600,-7803,13025,-6231
F,1,1232,1023,651,230,2480,0,1,1,1,1,1,9852,1172,-9600,-7803,13025,-6231
F,1,1242,1023,646,215,2480,0,1,1,1,1,1,9852,1172,-9600,-7803,13025,-6231
F,1,1258,996,649,196,2479,0,1,1,1,1,1,9852,1172,-9600,-7803,13025,-6231
F,1,1254,1039,638,230,2489,0,1,1,1,1,1,9852,1172,-9600,-7803,13025,-6231
F,1,1259,1041,638,208,2479,0,1,1,1,1,1,9852,1172,-9600,-7803,13025,-6231
F,1,1239,1022,634,217,2481,0,1,1,1,1,1,9852,1172,-9600,-7803,13025,-6231
F,1,1247,1023,638,227,2482,0,1,1,1,1,1,9852,1172,-9600,-7803,13025,-6231
F,1,1237,1035,655,210,2484,0,1,1,1,1,1,9852,1172,-9600,-7803,13025,-6231
F,1,1233,1023,643,212,2482,0,1,1,1,1,1,9852,1172,-9600,-7803,13025,-6231
F,1,1248,1037,646,234,2482,0,1,1,1,1,1,9852,1172,-9600,-7803,13025,-6231
F,1,1249,1033,650,212,2477,0,1,1,1,1,1,9852,1172,-9600,-7803,13025,-6231
F,1,1262,1051,646,210,2475,0,1,1,1,1,1,9852,1172,-9600,-7803,13025,-6231
F,1,1232,1023,667,208,2494,0,1,1,1,1,1,9852,1172,-9600,-7803,13025,-6231
F,1,1233,1023,673,189,2512,0,1,1,1,1,1,9852,1172,-9600,-7803,13025,-6231
F,1,1244,1079,597,211,2510,0,1,1,1,1,1,9852,1172,-9600,-7803,13025,-6231
G,1,346,550,398,497,2507,1,1,1,1,1,1,5348,-15884,28,-400,-488,58
G,1,346,548,399,496,2507,1,1,1,1,1,1,5128,-16116,-236,-417,-81,199
G,1,341,554,400,496,2513,1,1,1,1,1,1,5188,-16260,-48,-517,-143,34
G,1,342,553,400,496,2512,1,1,1,1,1,1,5260,-16212,84,-760,-110,5
G,1,341,550,400,495,2508,1,1,1,1,1,1,5340,-15976,12,-584,-351,-1
G,1,349,551,395,495,2512,1,1,1,1,1,1,5240,-16112,-172,-522,-226,126
G,1,341,551,397,496,2507,1,1,1,1,1,1,5436,-16072,-84,-593,-446,109
G,1,344,547,397,496,2505,1,1,1,1,1,1,5428,-16032,-148,-542,-336,107
G,1,343,550,400,493,2512,1,1,1,1,1,1,5336,-16244,-40,-746,-491,94
G,1,348,548,397,496,2512,1,1,1,1,1,1,5448,-16152,-64,-557,-471,-19
G,1,343,547,394,496,2514,1,1,1,1,1,1,5240,-15968,-32,-869,-325,167
G,1,347,550,399,498,2511,1,1,1,1,1,1,5204,-16136,-308,-476,-267,81
G,1,347,556,400,498,2506,1,1,1,1,1,1,5220,-16064,-140,-885,-1,102
G,1,342,547,400,495,2507,1,1,1,1,1,1,5220,-15932,-192,-826,-7,340
G,1,347,555,396,496,2509,1,1,1,1,1,1,5296,-16020,32,-509,-126,181
G,1,347,553,400,497,2506,1,1,1,1,1,1,5240,-16248,-220,-585,-72,125
G,1,345,563,400,499,2510,1,1,1,1,1,1,5328,-16180,-276,-653,-15,-91
G,1,343,549,399,496,2508,1,1,1,1,1,1,5416,-15968,-212,-656,242,88
G,1,342,545,397,495,2512,1,1,1,1,1,1,5432,-16164,-188,-558,-69,219
G,1,346,550,396,496,2512,1,1,1,1,1,1,5384,-16160,-36,-714,-131,54
G,1,340,549,398,496,2512,1,1,1,1,1,1,5240,-15968,-544,-558,-161,67
G,1,348,550,398,494,2511,1,1,1,1,1,1,5324,-15988,-416,-349,34,102
G,1,341,554,397,501,2508,1,1,1,1,1,1,5172,-16088,-128,-613,-173,126
G,1,347,549,398,499,2506,1,1,1,1,1,1,5504,-16056,-192,-118,-223,113
G,1,346,551,398,501,2507,1,1,1,1,1,1,5412,-16188,24,-568,-295,97
G,1,351,549,399,496,2506,1,1,1,1,1,1,5424,-15976,-228,-413,-323,-47
G,1,345,548,394,501,2505,1,1,1,1,1,1,5400,-16132,-204,-580,-174,114
G,1,342,551,400,496,2509,1,1,1,1,1,1,5484,-16220,-176,-462,-389,76
G,1,341,550,399,492,2512,1,1,1,1,1,1,5436,-16060,-276,-508,-377,157
G,1,346,550,400,496,2512,1,1,1,1,1,1,5272,-16224,-252,-555,-380,156
G,1,335,530,397,598,2525,1,1,1,1,1,1,4608,-16460,924,-495,-1051,777
G,1,336,530,387,599,2527,1,1,1,1,1,1,4004,-16824,-188,-1622,44,669
G,1,336,529,391,596,2526,1,1,1,1,1,1,3896,-16920,520,-433,-1135,-227
G,1,336,528,397,592,2524,1,1,1,1,1,1,3696,-16660,288,991,-1619,-339
G,1,333,528,389,597,2531,1,1,1,1,1,1,3700,-16768,1016,-2543,131,10
G,1,336,529,393,590,2526,1,1,1,1,1,1,3312,-16068,984,65,-581,-688
G,1,334,528,394,595,2519,1,1,1,1,1,1,3228,-15752,888,-1640,38,-115
G,1,333,533,387,592,2519,1,1,1,1,1,1,3948,-15376,780,-178,-601,30
G,1,336,524,399,592,2525,1,1,1,1,1,1,4028,-16556,888,-599,-492,358
G,1,333,528,395,589,2532,1,1,1,1,1,1,4068,-16652,1436,104,-1002,-125
G,1,336,528,390,592,2523,1,1,1,1,1,1,3916,-16976,1476,-1050,-1097,-180
G,1,333,534,388,592,2527,1,1,1,1,1,1,4336,-15648,848,-917,-1045,-239
G,1,336,529,388,592,2534,1,1,1,1,1,1,4260,-15868,232,-434,-508,-12
G,1,336,531,398,592,2523,1,1,1,1,1,1,4224,-16316,480,-415,-210,297
G,1,335,529,394,592,2530,1,1,1,1,1,1,3940,-16628,708,-409,-157,112
G,1,336,528,392,592,2523,1,1,1,1,1,1,4364,-16456,988,200,-347,-76
G,1,336,529,394,590,2530,1,1,1,1,1,1,4040,-16500,836,-463,-438,-73
G,1,336,528,393,595,2531,1,1,1,1,1,1,4212,-16308,916,-168,-316,-334
G,1,335,530,397,590,2525,1,1,1,1,1,1,4308,-15952,1028,-337,-483,-232
G,1,336,528,394,591,2534,1,1,1,1,1,1,4160,-16296,1156,-288,-590,96
G,1,336,531,397,592,2526,1,1,1,1,1,1,4288,-16140,1056,-170,-615,34
G,1,336,531,394,589,2526,1,1,1,1,1,1,4288,-16456,968,-64,-739,78
G,1,336,530,391,587,2523,1,1,1,1,1,1,4240,-16248,912,-340,-509,53
G,1,335,528,393,589,2521,1,1,1,1,1,1,4180,-16188,1024,-154,-586,205
G,1,335,535,399,592,2523,1,1,1,1,1,1,3764,-16024,1064,-150,-271,300
G,1,336,528,396,587,2525,1,1,1,1,1,1,4040,-16472,1604,-252,-374,570
G,1,335,528,400,588,2521,1,1,1,1,1,1,3748,-16648,1980,-1170,-96,535
G,1,335,529,394,587,2524,1,1,1,1,1,1,3796,-16716,876,-634,-1227,139
G,1,333,529,396,587,2518,1,1,1,1,1,1,4008,-15776,896,-864,85,351
G,1,336,529,395,587,2526,1,1,1,1,1,1,4120,-16048,812,-310,-466,176
G,1,335,496,384,562,2533,1,1,1,1,1,1,4296,-16504,504,926,-589,-252
G,1,326,503,385,566,2539,1,1,1,1,1,1,4108,-16752,260,374,-1141,-325
G,1,327,497,384,567,2538,1,1,1,1,1,1,4460,-16396,-112,459,-1070,-383
G,1,329,503,386,572,2532,1,1,1,1,1,1,4336,-16692,-220,-544,-884,-248
G,1,325,499,385,566,2541,1,1,1,1,1,1,4296,-16728,128,-556,-610,-507
G,1,324,506,387,568,2539,1,1,1,1,1,1,4636,-16192,312,-864,-347,-613
G,1,333,505,391,570,2541,1,1,1,1,1,1,4660,-15996,248,-1014,-455,-279
G,1,323,498,388,573,2541,1,1,1,1,1,1,4788,-15856,460,-966,-814,-240
G,1,326,509,394,576,2535,1,1,1,1,1,1,4768,-16608,344,-950,-607,-17
G,1,332,501,384,571,2539,1,1,1,1,1,1,4932,-16520,524,-1064,-1673,-243
G,1,327,499,386,570,2538,1,1,1,1,1,1,4484,-16528,148,-406,-2008,-423
G,1,327,501,381,567,2537,1,1,1,1,1,1,5088,-16364,-32,-379,-1806,-629
G,1,326,501,384,571,2539,1,1,1,1,1,1,4612,-16192,-368,-593,-1632,-616
G,1,327,505,390,575,2543,1,1,1,1,1,1,4860,-16380,-140,-461,-1280,-588
G,1,329,505,389,569,2544,1,1,1,1,1,1,4748,-16900,64,-1042,-1482,-876
G,1,326,506,387,576,2541,1,1,1,1,1,1,5076,-16312,-176,-772,-1441,-1224
G,1,327,496,387,571,2542,1,1,1,1,1,1,5220,-16140,-128,-1328,-1777,-1116
G,1,326,501,389,570,2538,1,1,1,1,1,1,4968,-16652,-264,-1344,-2207,-1249
G,1,327,509,386,575,2540,1,1,1,1,1,1,5324,-17316,-512,-2712,-1785,-1830
G,1,332,501,385,572,2542,1,1,1,1,1,1,6140,-15728,-1188,-5097,-2024,-2187
G,1,335,498,382,574,2540,1,1,1,1,1,1,6316,-14672,-2304,-6659,-1492,-1470
G,1,327,502,388,576,2539,1,1,1,1,1,1,6480,-16212,-3092,-9083,-799,-738
G,1,333,506,385,571,2541,1,1,1,1,1,1,6784,-14620,-3140,-16653,376,-67
G,1,330,503,385,566,2542,1,1,1,1,1,1,6912,-13588,-4584,-8159,-1647,-570
G,1,333,502,387,572,2542,1,1,1,1,1,1,6052,-13084,-5684,-5298,-1583,-560
G,1,330,501,391,575,2544,1,1,1,1,1,1,6496,-12452,-6388,-1980,-1920,-90
G,1,330,504,390,573,2544,1,1,1,1,1,1,6060,-12996,-6440,1536,-1578,257
G,1,326,503,389,576,2543,1,1,1,1,1,1,6076,-13732,-6760,2781,-1650,1063
G,1,332,507,390,577,2544,1,1,1,1,1,1,6192,-14448,-6392,2181,-428,958
G,1,325,506,385,571,2535,1,1,1,1,1,1,6588,-11484,-5436,7065,-1380,1120
G,1,322,511,385,559,90,1,1,1,1,1,1,8952,-15516,-2984,-463,-1825,-1635
G,1,334,510,394,569,2528,1,1,1,1,1,1,8548,-15120,-3616,-1491,-999,-1551
G,1,322,511,384,574,2534,1,1,1,1,1,1,8936,-14004,-3136,-1613,-1197,-1089
G,1,323,511,391,569,2534,1,1,1,1,1,1,9372,-12412,-3808,-1130,-1460,-338
G,1,330,511,390,560,2526,1,1,1,1,1,1,9656,-12348,-4476,-715,-2076,540
G,1,328,509,387,560,2538,1,1,1,1,1,1,9020,-13492,-4076,1740,-305,685
G,1,330,511,389,554,2530,1,1,1,1,1,1,8928,-15356,-3024,2398,-1527,249
G,1,323,511,390,560,2530,1,1,1,1,1,1,9156,-15692,-2768,2051,-1139,-699
G,1,325,511,386,553,2512,1,1,1,1,1,1,8780,-15308,-3140,352,-1360,-1009
G,1,325,511,386,554,2535,1,1,1,1,1,1,8208,-16340,-2948,-2524,-1083,-1605
G,1,331,511,384,550,2537,1,1,1,1,1,1,9324,-14560,-3092,-1625,-201,-3990
G,1,324,506,389,547,2511,1,1,1,1,1,1,9696,-12028,-3980,-989,-156,-3225
G,1,323,509,390,554,2539,1,1,1,1,1,1,10100,-12256,-5032,-857,810,-856
G,1,326,511,380,546,2350,1,1,1,1,1,1,9704,-13352,-3528,-592,1975,632
G,1,330,510,385,560,2535,1,1,1,1,1,1,10356,-13624,-2268,-348,1373,745
G,1,320,510,390,533,83,1,1,1,1,1,1,10584,-13656,-2452,-119,145,903
G,1,327,510,393,527,90,1,1,1,1,1,1,10412,-13360,-3148,-142,-79,1765
G,1,323,511,387,531,89,1,1,1,1,1,1,9536,-13284,-3448,-489,-246,2639
G,1,336,511,387,541,2542,1,1,1,1,1,1,9292,-13608,-2940,-406,171,3764
G,1,326,508,390,539,2512,1,1,1,1,1,1,8900,-15264,-2232,-1372,196,4219
G,1,327,511,385,533,2542,1,1,1,1,1,1,9016,-15356,-2172,-534,-1333,2740
G,1,320,508,389,537,2538,1,1,1,1,1,1,8760,-16192,-3316,732,-1427,1251
G,1,327,506,393,535,2543,1,1,1,1,1,1,8472,-14864,-3548,-914,-743,783
G,1,320,510,386,537,2537,1,1,1,1,1,1,8000,-14468,-3024,-53,-116,330
G,1,326,509,391,534,2531,1,1,1,1,1,1,8024,-14580,-3292,-75,304,613
G,1,331,505,390,535,2543,1,1,1,1,1,1,8324,-14472,-2840,-46,559,976
G,1,329,511,393,534,2519,1,1,1,1,1,1,8328,-15044,-2192,-258,293,1033
G,1,327,506,389,535,2529,1,1,1,1,1,1,7992,-15616,-2660,-1265,-342,842
G,1,325,502,390,527,86,1,1,1,1,1,1,7772,-15476,-3212,-5516,1164,1773
G,1,331,511,391,527,83,1,1,1,1,1,1,8272,-13912,-3120,-2933,-140,1066
G,1,275,439,365,416,2454,1,1,1,1,1,1,7744,-13956,-2752,-8343,622,2303
G,1,274,445,343,429,61,1,1,1,1,1,1,7172,-13664,-3128,-3500,-381,2030
G,1,275,448,363,435,63,1,1,1,1,1,1,6240,-15028,-3292,-1492,1028,2041
G,1,283,451,364,432,57,1,1,1,1,1,1,6856,-15056,-1980,-1399,2852,2731
G,1,285,456,368,432,58,1,1,1,1,1,1,6296,-16452,-1504,-1817,2812,2380
G,1,283,460,368,429,59,1,1,1,1,1,1,6592,-15896,-376,-2398,1792,2097
G,1,288,460,368,428,55,1,1,1,1,1,1,5964,-16544,-44,38,1083,1702
G,1,289,463,366,426,53,1,1,1,1,1,1,5948,-16860,644,-1512,512,1119
G,1,287,459,368,425,51,1,1,1,1,1,1,6192,-16200,88,-74,-791,247
G,1,287,464,368,425,56,1,1,1,1,1,1,6144,-15908,-900,-1130,-977,292
G,1,289,464,368,423,57,1,1,1,1,1,1,6036,-15716,-1420,-1030,-203,81
G,1,291,464,371,423,48,1,1,1,1,1,1,6132,-15580,-1620,-1405,88,281
G,1,298,467,378,427,58,1,1,1,1,1,1,6280,-15800,-1532,198,-887,249
G,1,293,465,375,427,54,1,1,1,1,1,1,6064,-15888,-1468,-881,-90,248
G,1,297,464,371,430,50,1,1,1,1,1,1,6112,-16144,-1384,22,-590,118
G,1,301,467,375,427,59,1,1,1,1,1,1,5964,-16020,-1544,-683,-23,-29
G,1,303,471,384,432,55,1,1,1,1,1,1,5912,-16124,-1152,-475,-65,-33
G,1,304,471,374,433,61,1,1,1,1,1,1,6016,-15796,-960,-443,-98,-98
G,1,304,471,377,432,51,1,1,1,1,1,1,5960,-15620,-1048,-219,-9,77
G,1,304,477,378,434,52,1,1,1,1,1,1,5852,-15436,-1152,-228,-112,349
G,1,304,475,380,438,51,1,1,1,1,1,1,5872,-15940,-1320,556,102,246
G,1,306,480,377,432,52,1,1,1,1,1,1,5884,-16024,-1024,-683,-327,396
G,1,304,476,384,432,55,1,1,1,1,1,1,5912,-16180,-1096,47,-221,288
G,1,307,479,380,435,51,1,1,1,1,1,1,5924,-15908,-1420,-742,-414,304
G,1,306,475,381,434,52,1,1,1,1,1,1,5740,-15896,-1336,-1202,308,421
G,1,311,480,383,435,54,1,1,1,1,1,1,5724,-15940,-944,-889,-26,390
G,1,308,481,382,435,52,1,1,1,1,1,1,6060,-16008,-1032,-197,419,302
G,1,309,482,379,438,51,1,1,1,1,1,1,6160,-15900,-896,-1146,129,361
G,1,307,478,382,441,51,1,1,1,1,1,1,6136,-15308,-944,184,-819,594
G,1,310,478,382,436,54,1,1,1,1,1,1,5928,-16084,-840,24,-816,610
H,1,361,525,765,466,2613,1,1,1,1,1,0,4428,-16158,-738,-554,-278,174
H,1,359,525,762,470,2614,1,1,1,1,1,0,4374,-16302,-702,-435,17,86
H,1,365,523,763,478,2611,1,1,1,1,1,0,4518,-16296,-548,-616,-82,91
H,1,362,525,769,478,2619,1,1,1,1,1,0,4450,-16344,-642,-497,-273,76
H,1,362,523,768,473,2613,1,1,1,1,1,0,4488,-16156,-660,-444,-254,14
H,1,359,511,771,473,2613,1,1,1,1,1,0,4348,-16240,-718,-531,-231,127
H,1,361,527,768,477,2613,1,1,1,1,1,0,4420,-16094,-678,-395,-314,95
H,1,360,525,770,471,2614,1,1,1,1,1,0,4498,-16194,-578,-456,-244,209
H,1,359,525,770,475,2612,1,1,1,1,1,0,4562,-16442,-690,-390,-257,103
H,1,359,526,771,466,2614,1,1,1,1,1,0,4424,-16240,-700,-549,-367,56
H,1,363,528,771,461,2618,1,1,1,1,1,0,4332,-16126,-694,-399,-119,87
H,1,362,526,767,463,2611,1,1,1,1,1,0,4478,-16296,-82,-407,-89,164
H,1,362,526,768,459,2615,1,1,1,1,1,0,4566,-16248,-584,-531,-239,124
H,1,362,526,768,459,2610,1,1,1,1,1,0,4446,-16278,-692,-419,-262,63
H,1,361,526,764,453,2613,1,1,1,1,1,0,4438,-16338,-674,-510,-184,63
H,1,363,526,768,455,2610,1,1,1,1,1,0,4426,-16196,-674,-502,-222,56
H,1,361,524,767,458,2615,1,1,1,1,1,0,4448,-16188,-554,-474,-59,105
H,1,364,528,772,465,2615,1,1,1,1,1,0,4476,-16190,-524,-476,-254,73
H,1,363,527,771,466,2611,1,1,1,1,1,0,4486,-16250,-540,-448,-281,86
H,1,363,528,772,470,2614,1,1,1,1,1,0,4464,-16234,-642,-545,-377,162
H,1,362,528,767,467,2611,1,1,1,1,1,0,4416,-16282,-628,-500,-175,117
H,1,363,527,769,475,2612,1,1,1,1,1,0,4510,-16138,-500,-494,-308,153
H,1,365,527,768,457,2619,1,1,1,1,1,0,4458,-16350,-594,-589,-92,197
H,1,367,527,769,466,2615,1,1,1,1,1,0,4554,-16432,-596,-540,-250,46
H,1,363,527,768,471,2617,1,1,1,1,1,0,4410,-16338,-614,-641,-273,34
H,1,363,525,765,450,2613,1,1,1,1,1,0,4346,-16134,-594,-588,-282,13
H,1,363,525,766,447,2615,1,1,1,1,1,0,4474,-16216,-560,-753,-39,212
H,1,360,526,763,453,2614,1,1,1,1,1,0,4492,-16226,-544,-768,-438,241
H,1,362,528,754,467,2614,1,1,1,1,1,0,4466,-16250,-720,-857,-247,354
H,1,363,526,755,477,2613,1,1,1,1,1,0,4432,-16126,-742,-432,-261,-50
H,1,383,542,743,448,2612,1,1,1,1,1,0,4242,-16274,-1276,-353,177,67
H,1,384,540,742,448,2610,1,1,1,1,1,0,4546,-16078,-802,-108,13,-13
H,1,385,541,746,447,2614,1,1,1,1,1,0,4372,-16326,-896,215,-276,43
H,1,387,537,747,446,2611,1,1,1,1,1,0,4124,-16638,-996,-644,-252,23
H,1,387,539,750,446,2614,1,1,1,1,1,0,4176,-16368,-1198,-670,-30,-182
H,1,387,540,752,447,2613,1,1,1,1,1,0,4338,-16144,-1150,-836,250,-106
H,1,387,539,751,446,2611,1,1,1,1,1,0,4588,-16264,-946,-741,42,-206
H,1,387,538,750,446,2611,1,1,1,1,1,0,4650,-16008,-868,-657,-102,-183
H,1,387,539,751,448,2611,1,1,1,1,1,0,4504,-16014,-942,-655,-242,-49
H,1,388,539,752,448,2609,1,1,1,1,1,0,4482,-16094,-1018,-503,-280,18
H,1,386,541,752,448,2611,1,1,1,1,1,0,4582,-16134,-1046,-583,-252,122
H,1,387,541,752,446,2612,1,1,1,1,1,0,4572,-16302,-1074,-428,-246,91
H,1,385,541,752,448,2615,1,1,1,1,1,0,4590,-16062,-942,-574,-266,80
H,1,384,539,752,448,2614,1,1,1,1,1,0,4472,-16190,-972,-555,-371,234
H,1,389,541,752,445,2613,1,1,1,1,1,0,4500,-16226,-916,-336,-293,140
H,1,387,541,752,448,2614,1,1,1,1,1,0,4502,-16220,-1054,-631,-421,218
H,1,386,541,752,449,2611,1,1,1,1,1,0,4496,-16398,-1054,-361,-342,137
H,1,390,542,752,450,2615,1,1,1,1,1,0,4536,-16188,-1026,-611,-387,108
H,1,390,540,752,449,2613,1,1,1,1,1,0,4470,-15994,-1116,-398,-281,68
H,1,389,541,752,449,2614,1,1,1,1,1,0,4508,-15810,-912,-289,-314,361
H,1,391,542,752,448,2618,1,1,1,1,1,0,4524,-16390,-912,-449,-412,534
H,1,389,541,752,450,2619,1,1,1,1,1,0,4532,-16222,-880,-89,-449,193
H,1,387,541,753,449,2613,1,1,1,1,1,0,4400,-16142,-818,-443,-571,513
H,1,387,544,753,448,2613,1,1,1,1,1,0,4348,-16304,-1004,-176,-477,456
H,1,390,542,753,450,2615,1,1,1,1,1,0,4222,-16246,-1010,-303,-508,468
H,1,392,541,753,449,2614,1,1,1,1,1,0,4116,-16540,-864,-445,-309,432
H,1,389,540,753,450,2613,1,1,1,1,1,0,4184,-16406,-856,-499,-343,243
H,1,387,537,752,448,2613,1,1,1,1,1,0,4138,-16260,-878,-470,-265,187
H,1,389,541,752,448,2612,1,1,1,1,1,0,4158,-16332,-820,-579,-352,126
H,1,391,540,753,448,2610,1,1,1,1,1,0,4156,-16410,-912,-538,-211,98
H,1,357,494,1143,528,2611,1,1,1,1,1,0,10532,-14046,-516,-110,163,56
H,1,359,495,1142,529,2612,1,1,1,1,1,0,10678,-13870,-346,-103,272,-63
H,1,357,494,1133,528,2613,1,1,1,1,1,0,10736,-13712,-220,-376,289,139
H,1,358,495,1129,511,2613,1,1,1,1,1,0,10870,-13904,-94,-1030,489,405
H,1,358,494,1129,523,2613,1,1,1,1,1,0,10872,-13810,62,-242,-100,287
H,1,359,495,1117,493,2611,1,1,1,1,1,0,10620,-13876,-14,-634,-37,522
H,1,361,496,1116,497,2613,1,1,1,1,1,0,10538,-14096,120,-672,-44,617
H,1,363,496,1111,491,2611,1,1,1,1,1,0,10584,-14022,130,-730,-267,628
H,1,362,496,1110,450,2610,1,1,1,1,1,0,10666,-13968,156,-215,-513,607
H,1,360,496,1105,433,2611,1,1,1,1,1,0,10436,-14454,-154,-386,-201,526
H,1,365,496,1101,432,2614,1,1,1,1,1,0,10324,-14076,-138,-347,-246,338
H,1,361,496,1102,422,2615,1,1,1,1,1,0,10262,-14034,-144,-115,-116,379
H,1,364,496,1096,429,2611,1,1,1,1,1,0,10280,-14046,-20,-531,141,583
H,1,364,499,1090,405,2615,1,1,1,1,1,0,10156,-14258,38,-246,29,497
H,1,365,497,1086,434,2610,1,1,1,1,1,0,10350,-14104,70,-518,285,678
H,1,361,497,1088,511,2613,1,1,1,1,1,0,10160,-14504,20,-296,155,470
H,1,365,499,1084,511,2618,1,1,1,1,1,0,10050,-14450,264,-462,128,410
H,1,362,497,1075,511,2612,1,1,1,1,1,0,10290,-14340,368,-428,74,439
H,1,362,499,1072,511,2618,1,1,1,1,1,0,10392,-14196,390,-507,-168,469
H,1,365,500,1061,461,2612,1,1,1,1,1,0,10288,-14158,480,-476,-498,621
H,1,354,500,1057,509,2615,1,1,1,1,1,0,9948,-14084,352,-563,-649,692
H,1,351,499,1054,506,2615,1,1,1,1,1,0,9842,-14312,188,-715,-597,843
H,1,359,501,1050,508,2615,1,1,1,1,1,0,9782,-14516,122,-641,-647,847
H,1,355,501,1042,505,2617,1,1,1,1,1,0,9740,-14868,-118,-444,-608,539
H,1,354,500,1040,507,2611,1,1,1,1,1,0,9694,-14700,-80,-385,-209,242
H,1,368,501,1041,502,2611,1,1,1,1,1,0,9810,-14440,200,-543,-271,397
H,1,359,503,1038,503,2612,1,1,1,1,1,0,9732,-14512,-86,-675,-173,279
H,1,358,503,1037,502,2611,1,1,1,1,1,0,9492,-14492,134,-530,116,258
H,1,368,501,1038,501,2611,1,1,1,1,1,0,9666,-14422,416,-416,20,113
H,1,366,503,1037,501,2613,1,1,1,1,1,0,9588,-14312,170,-610,48,246
H,1,355,488,885,450,2611,1,1,1,1,1,0,5544,-13620,-8270,-1295,370,-50
H,1,357,489,899,459,2612,1,1,1,1,1,0,5588,-13966,-8876,-1640,3005,-766
H,1,358,489,912,439,2615,1,1,1,1,1,0,5878,-13422,-7850,392,-23,-721
H,1,362,487,931,446,2613,1,1,1,1,1,0,5746,-13180,-8252,214,672,-179
H,1,361,487,943,451,2611,1,1,1,1,1,0,6046,-13838,-7186,1870,-1432,-265
H,1,361,487,953,458,2613,1,1,1,1,1,0,6274,-14298,-7622,909,508,-400
H,1,362,483,960,462,2614,1,1,1,1,1,0,5968,-14136,-7284,1538,-862,-581
H,1,363,483,960,462,2613,1,1,1,1,1,0,6192,-13864,-7544,-285,-589,-224
H,1,359,483,963,461,2614,1,1,1,1,1,0,5834,-13546,-7502,357,-240,-98
H,1,363,482,967,464,2615,1,1,1,1,1,0,6068,-13754,-7370,-349,-1039,226
H,1,361,478,971,464,2611,1,1,1,1,1,0,6296,-14046,-7392,-560,370,385
H,1,363,486,974,464,2611,1,1,1,1,1,0,5724,-14340,-7452,488,-854,213
H,1,359,487,976,464,2617,1,1,1,1,1,0,6056,-13928,-7392,-325,-571,156
H,1,365,495,979,464,2612,1,1,1,1,1,0,5658,-14040,-7418,-585,391,452
H,1,365,484,982,483,2616,1,1,1,1,1,0,6042,-14352,-7052,-673,-36,327
H,1,365,483,982,486,2613,1,1,1,1,1,0,5840,-14354,-7322,1288,-15,-165
H,1,368,491,983,491,2614,1,1,1,1,1,0,5846,-13790,-7108,-975,-816,421
H,1,368,490,983,486,2611,1,1,1,1,1,0,6050,-14118,-7130,-648,-202,670
H,1,367,490,980,485,2614,1,1,1,1,1,0,5644,-14300,-6988,-528,-574,506
H,1,366,481,977,487,2614,1,1,1,1,1,0,6200,-14370,-7118,-55,205,-134
H,1,367,489,976,485,2611,1,1,1,1,1,0,5930,-14094,-6918,-831,-324,267
H,1,367,494,976,489,2615,1,1,1,1,1,0,5980,-14254,-6978,-33,-258,63
H,1,368,493,977,491,2615,1,1,1,1,1,0,5668,-14280,-7138,-443,-70,177
H,1,366,493,978,490,2612,1,1,1,1,1,0,5404,-14150,-7304,-218,-599,317
H,1,365,495,984,490,2613,1,1,1,1,1,0,5540,-14426,-7352,47,-172,282
H,1,367,496,983,489,2613,1,1,1,1,1,0,5414,-14334,-7318,-420,66,445
H,1,368,493,987,493,2610,1,1,1,1,1,0,5980,-14468,-7036,91,281,120
H,1,368,495,991,492,2611,1,1,1,1,1,0,5780,-14746,-6982,535,120,-90
H,1,368,496,992,494,2619,1,1,1,1,1,0,6416,-14382,-6142,-739,-844,-346
H,1,366,496,998,491,2615,1,1,1,1,1,0,5826,-14802,-6736,-588,-475,-255
H,1,313,475,758,306,2610,1,1,1,1,1,1,5660,-15442,-2024,9883,-1477,-4185
H,1,317,468,816,327,2615,1,1,1,1,1,1,4626,-17236,-580,11407,-5942,-4600
H,1,315,464,906,356,2614,1,1,1,1,1,0,4520,-16384,-860,8490,-5825,-3321
H,1,318,470,969,378,2609,1,1,1,1,1,0,2968,-18854,-1358,6986,-5075,-4059
H,1,320,474,1008,403,2610,1,1,1,1,1,0,4578,-16798,-3134,105,-4563,-3350
H,1,321,477,1040,422,2612,1,1,1,1,1,0,6166,-14822,-2850,1447,-2495,-3824
H,1,322,479,1052,429,2609,1,1,1,1,1,0,7702,-14318,-872,-388,-2015,-2334
H,1,325,479,1066,434,2610,1,1,1,1,1,0,7894,-14310,652,-803,-1498,-1765
H,1,331,485,1064,439,2613,1,1,1,1,1,0,7270,-14854,518,258,-3035,-1625
H,1,333,485,1052,447,2608,1,1,1,1,1,0,7266,-15530,364,-341,-1719,-1281
H,1,331,487,1008,445,2610,1,1,1,1,1,0,7408,-16084,0,430,-2234,-1157
H,1,333,487,999,451,2612,1,1,1,1,1,0,6908,-16498,-1064,-3626,-1244,316
H,1,331,491,991,449,2611,1,1,1,1,1,0,7112,-16656,-1396,-6733,-886,1875
H,1,332,491,982,448,2612,0,1,1,1,1,0,6932,-17300,-1436,-11047,492,2928
H,1,335,496,989,454,2613,0,1,1,1,1,0,6758,-15990,-2572,-11477,-49,2403
H,1,334,496,979,453,2613,0,1,1,1,1,0,6288,-15162,-3838,-9588,1775,944
H,1,335,496,982,452,2611,0,1,1,1,1,0,5838,-13176,-4392,-5820,1579,265
H,1,336,496,983,453,2614,0,1,1,1,1,0,6100,-13316,-5248,-1576,1794,-514
H,1,337,496,976,457,2615,0,1,1,1,1,0,6800,-14046,-4904,-610,2524,309
H,1,336,499,976,459,2615,0,1,1,1,1,0,6766,-15156,-4638,-380,2264,243
H,1,336,497,976,460,2616,0,1,1,1,1,0,6828,-15694,-4940,-2469,2094,889
H,1,337,497,976,458,2613,0,1,1,1,1,0,6776,-15630,-5560,-2875,1699,298
H,1,341,496,975,461,2614,0,1,1,1,1,0,7020,-14884,-5288,-7742,1281,1891
H,1,337,499,977,461,2617,0,1,1,1,1,0,7048,-13472,-5856,-6534,111,2340
H,1,338,501,982,464,2611,0,1,1,1,1,0,6870,-13348,-6596,-4139,-1093,1776
H,1,339,502,992,464,2615,0,1,1,1,1,0,6324,-12990,-7572,-2347,-971,1585
H,1,339,503,999,464,2614,0,1,1,1,1,0,5872,-13828,-7576,260,-421,809
H,1,342,502,1003,461,2615,0,1,1,1,1,0,6160,-14128,-7108,143,318,630
H,1,341,506,1008,464,2614,0,1,1,1,1,0,6056,-13600,-7238,1320,-316,510
H,1,342,503,1008,462,2610,0,1,1,1,1,0,5890,-15096,-7006,2495,175,561
I,1,1270,549,400,179,2551,1,1,1,1,1,0,16886,3580,-8228,408,-1349,784
I,1,1275,550,399,178,2554,1,1,1,1,1,0,17478,2966,-8446,297,-525,1170
I,1,1277,550,400,178,2557,1,1,1,1,1,0,17296,1994,-7502,-21,918,59
I,1,1273,551,399,178,2551,1,1,1,1,1,0,16802,3006,-6720,-388,-114,-665
I,1,1270,554,400,179,2555,1,1,1,1,1,0,16340,2998,-6276,230,-1294,-293
I,1,1270,551,398,179,2550,1,1,1,1,1,0,15714,2452,-7214,-609,-2411,-34
I,1,1271,553,397,178,2555,1,1,1,1,1,0,15810,4290,-8402,-1201,-1817,-1044
I,1,1277,555,400,178,2554,1,1,1,1,1,0,15934,4010,-8542,-1080,132,580
I,1,1279,553,397,179,2558,1,1,1,1,1,0,16352,3006,-7526,-1068,1246,894
I,1,1284,554,398,180,2550,1,1,1,1,1,0,16496,2474,-6966,-929,1196,165
I,1,1284,554,397,178,2552,1,1,1,1,1,0,16632,3020,-6764,-1069,472,-387
I,1,1289,553,398,179,2555,1,1,1,1,1,0,16372,3216,-6984,-582,747,-362
I,1,1294,554,396,177,2553,1,1,1,1,1,0,16336,3460,-6862,-639,885,-148
I,1,1295,551,399,176,2554,1,1,1,1,1,0,16324,3110,-6588,-458,1001,-239
I,1,1292,554,400,180,2550,1,1,1,1,1,0,16484,3590,-6386,-320,375,-101
I,1,1294,553,400,179,2556,1,1,1,1,1,0,16442,3462,-6784,-529,107,-307
I,1,1289,551,398,181,2553,1,1,1,1,1,0,16544,3712,-7000,-500,171,-278
I,1,1287,551,400,179,2554,1,1,1,1,1,0,16338,3728,-6974,-837,254,-106
I,1,1294,551,398,181,2555,1,1,1,1,1,0,16516,3702,-6794,-790,377,23
I,1,1293,550,400,182,2555,1,1,1,1,1,0,16622,3464,-6328,-893,103,276
I,1,1293,553,399,181,2554,1,1,1,1,1,0,16482,3728,-6136,-309,-239,614
I,1,1296,553,400,181,2555,1,1,1,1,1,0,16664,3178,-6286,-408,49,208
I,1,1296,551,400,183,2555,1,1,1,1,1,0,16518,3560,-6274,-478,4,263
I,1,1299,555,399,179,2551,1,1,1,1,1,0,16438,3310,-6492,-861,381,130
I,1,1320,556,402,180,2555,1,1,1,1,1,0,16536,3950,-6412,-187,147,673
I,1,1347,551,400,177,2554,1,1,1,1,1,0,16712,3396,-6346,-875,436,243
I,1,1398,549,400,179,2554,1,1,1,1,1,0,16904,3650,-6170,45,292,406
I,1,1442,554,400,179,2553,1,1,1,1,1,0,16678,3134,-6132,-780,124,153
I,1,1470,554,400,178,2549,1,1,1,1,1,0,16796,3458,-6194,-409,-304,180
I,1,1478,555,400,179,2558,1,1,1,1,1,0,16888,3288,-6150,-507,-393,35
I,1,1168,497,382,170,2559,1,1,1,1,1,0,16190,2996,-5642,-2236,-1225,4700
I,1,1172,501,384,176,2559,1,1,1,1,1,0,17056,1450,-2632,-173,1771,2955
I,1,1188,499,384,176,2559,1,1,1,1,1,0,15174,-202,-4518,-933,-1935,1490
I,1,1251,498,383,179,2559,1,1,1,1,1,0,16414,-108,-3986,-1130,1716,-5036
I,1,1317,499,382,179,2557,1,1,1,1,1,0,17352,3038,-3558,-2195,3518,-7862
I,1,1358,500,386,181,2558,1,1,1,1,1,0,16432,4304,-4140,-904,-451,-2871
I,1,1392,503,385,183,2557,1,1,1,1,1,0,19134,4868,-2966,982,1651,-1460
I,1,1399,502,384,184,2559,1,1,1,1,1,0,18874,5586,-3238,1158,904,-135
I,1,1407,502,383,181,2557,1,1,1,1,1,0,17894,3750,-2794,3112,1198,-314
I,1,1412,505,385,185,2559,1,1,1,1,1,0,17760,4066,-1252,557,-323,-1005
I,1,1411,503,381,184,2558,1,1,1,1,1,0,17036,3728,-2546,431,-1215,-1112
I,1,1409,502,385,179,2557,1,1,1,1,1,0,16984,3304,-4294,691,-1405,-460
I,1,1414,503,383,182,2559,1,1,1,1,1,0,17832,3868,-3952,340,-547,136
I,1,1415,504,386,181,2559,1,1,1,1,1,0,17852,3834,-3812,-922,231,112
I,1,1421,505,386,181,2559,1,1,1,1,1,0,18062,3536,-3888,-337,145,1019
I,1,1419,503,384,179,2559,1,1,1,1,1,0,17790,2510,-3230,-661,658,590
I,1,1422,506,384,181,2559,1,1,1,1,1,0,17682,2936,-3076,-313,10,244
I,1,1426,509,384,183,2558,1,1,1,1,1,0,17130,3748,-3412,-2610,929,-380
I,1,1426,503,385,182,2559,1,1,1,1,1,0,17412,2906,-2322,828,279,1002
I,1,1421,506,385,189,2559,1,1,1,1,1,0,17508,3618,-3188,-1562,-89,283
I,1,1411,507,386,188,2559,1,1,1,1,1,0,17544,2606,-3464,-559,50,764
I,1,1408,507,386,189,2559,1,1,1,1,1,0,17690,4112,-4356,-1945,155,317
I,1,1397,501,384,189,2559,1,1,1,1,1,0,17942,3784,-3426,-926,1615,1367
I,1,1388,505,383,189,2559,1,1,1,1,1,0,18138,2974,-1960,-1873,453,784
I,1,1383,505,385,188,2559,1,1,1,1,1,0,17872,2516,-2178,-1287,186,238
I,1,1371,505,384,187,2559,1,1,1,1,1,0,17748,3046,-2324,-815,-539,-47
I,1,1366,503,384,189,2559,1,1,1,1,1,0,17708,3376,-2946,-876,-346,-11
I,1,1355,506,385,190,2559,1,1,1,1,1,0,17606,3290,-2804,-569,-382,162
I,1,1350,503,385,191,2559,1,1,1,1,1,0,17762,3842,-2900,-820,-193,376
I,1,1341,505,385,188,2559,1,1,1,1,1,0,17958,3254,-3012,-675,-90,510
I,1,1484,487,400,149,2559,1,1,1,1,1,0,18300,-1380,580,1074,-853,677
I,1,1478,486,399,146,2559,1,1,1,1,1,0,18744,-662,1974,931,-964,622
I,1,1479,490,399,146,2559,1,1,1,1,1,0,17950,-1266,1190,815,463,259
I,1,1475,490,398,144,2559,1,1,1,1,1,0,17760,-2012,1364,2075,395,-199
I,1,1460,490,400,144,2559,1,1,1,1,1,0,18370,-662,2006,1080,-492,-304
I,1,1456,490,398,176,2559,1,1,1,1,1,0,18872,-892,1626,757,-1093,181
I,1,1446,489,399,182,2559,1,1,1,1,1,0,18636,-1122,688,539,-764,-243
I,1,1435,494,398,180,2559,1,1,1,1,1,0,18584,-746,988,514,24,123
I,1,1422,491,399,185,2559,1,1,1,1,1,0,18250,-1002,1250,403,-257,-161
I,1,1411,490,399,181,2559,1,1,1,1,1,0,18036,-376,1504,-362,-183,-543
I,1,1392,492,399,181,2559,1,1,1,1,1,0,18152,-588,1410,-180,-417,134
I,1,1375,492,399,181,2559,1,1,1,1,1,0,18376,-576,1450,-299,-37,119
I,1,1370,492,400,185,2559,1,1,1,1,1,0,18570,-664,1668,-272,-427,169
I,1,1358,493,399,184,2559,1,1,1,1,1,0,18412,-608,1338,-154,-347,2
I,1,1351,493,397,182,2559,1,1,1,1,1,0,18416,-666,1224,-689,-514,-224
I,1,1345,493,400,183,2559,1,1,1,1,1,0,18394,-584,1118,-597,-38,-240
I,1,1333,494,399,182,2559,1,1,1,1,1,0,18444,-498,1260,-419,55,-223
I,1,1325,494,398,181,2559,1,1,1,1,1,0,18160,-252,1524,-701,-103,117
I,1,1317,495,397,183,2559,1,1,1,1,1,0,18296,-616,1424,-279,-233,79
I,1,1314,495,398,185,2559,1,1,1,1,1,0,18304,-548,1648,-390,-393,150
I,1,1311,495,400,186,2559,1,1,1,1,1,0,18346,-870,1280,-288,-490,-64
I,1,1328,495,399,186,2559,1,1,1,1,1,0,18358,-720,1158,-664,-288,-146
I,1,1326,496,397,183,2559,1,1,1,1,1,0,18394,-486,1328,-175,-311,2
I,1,1323,496,400,184,2559,1,1,1,1,1,0,18330,-446,1276,-640,-247,-2
I,1,1321,494,400,187,2559,1,1,1,1,1,0,18376,-416,1604,-216,-309,213
I,1,1309,495,399,186,2559,1,1,1,1,1,0,18412,-506,1476,-185,-94,125
I,1,1305,496,400,185,2559,1,1,1,1,1,0,18314,-706,1416,-29,-249,-36
I,1,1301,496,398,188,2559,1,1,1,1,1,0,18270,-432,1344,18,-264,-162
I,1,1293,495,399,179,2559,1,1,1,1,1,0,18364,-398,1320,47,-566,-89
I,1,1287,496,400,183,2559,1,1,1,1,1,0,18382,-214,1222,284,-583,81
I,1,1021,484,409,186,2555,1,1,1,1,1,0,18202,1592,-604,126,359,425
I,1,1059,485,407,189,2555,1,1,1,1,1,0,18498,1642,-1084,256,929,-347
I,1,1075,489,407,188,2558,1,1,1,1,1,0,18498,2042,-1178,464,111,-114
I,1,1132,493,406,187,2559,1,1,1,1,1,0,18584,2658,-1170,1609,216,468
I,1,1200,497,411,192,2559,1,1,1,1,1,0,18466,1062,-2150,1687,21,823
I,1,1223,497,408,186,2557,1,1,1,1,1,0,18350,1632,-1976,-872,-101,31
I,1,1237,498,415,187,2559,1,1,1,1,1,0,18104,1692,-1052,355,645,31
I,1,1253,498,412,186,2559,1,1,1,1,1,0,17924,2042,-946,-294,-603,646
I,1,1266,499,412,187,2559,1,1,1,1,1,0,18284,1338,-1612,-275,-103,249
I,1,1278,502,416,186,2559,1,1,1,1,1,0,18056,1194,-1692,312,-59,-1
I,1,1275,502,417,191,2559,1,1,1,1,1,0,18478,1944,-1264,-453,-240,21
I,1,1279,503,416,187,2559,1,1,1,1,1,0,18128,1546,-1688,-26,-418,-40
I,1,1282,503,416,189,2559,1,1,1,1,1,0,18336,2116,-1726,-631,-288,75
I,1,1276,505,416,190,2559,1,1,1,1,1,0,17990,1646,-1652,-465,-410,363
I,1,1264,506,416,191,2559,1,1,1,1,1,0,18180,1642,-1554,-609,-296,450
I,1,1249,501,415,189,2559,1,1,1,1,1,0,18132,1596,-1530,-661,-69,90
I,1,1232,503,417,188,2559,1,1,1,1,1,0,18238,1848,-1242,-730,-293,247
I,1,1226,503,417,190,2559,1,1,1,1,1,0,18268,1478,-1340,-523,-377,126
I,1,1216,507,417,192,2559,1,1,1,1,1,0,18206,1406,-1702,-450,-429,47
I,1,1218,505,415,191,2559,1,1,1,1,1,0,18236,1654,-1522,-451,-413,70
I,1,1217,503,418,192,2559,1,1,1,1,1,0,18306,1738,-1432,-343,-392,11
I,1,1217,507,416,192,2559,1,1,1,1,1,0,18342,1582,-1718,-666,-600,84
I,1,1213,506,417,192,2557,1,1,1,1,1,0,18266,1688,-1622,-346,-282,116
I,1,1215,503,416,192,2559,1,1,1,1,1,0,18202,1838,-1452,-442,-276,59
I,1,1225,508,417,192,2559,1,1,1,1,1,0,18038,1544,-1894,-657,-324,282
I,1,1228,507,419,191,2559,1,1,1,1,1,0,18470,1972,-1620,-28,-199,562
I,1,1225,509,418,194,2559,1,1,1,1,1,0,18186,1008,-1858,-1178,-67,-446
I,1,1228,507,416,193,2559,1,1,1,1,1,0,18360,1778,-1764,-268,-123,-203
I,1,1230,507,419,194,2559,1,1,1,1,1,0,18334,1704,-1750,-1155,34,-10
I,1,1230,507,418,192,2559,1,1,1,1,1,0,18052,1218,-1900,-337,57,22
I,1,891,504,414,192,2559,1,1,1,1,1,0,18022,-2508,-4798,455,692,-1401
I,1,902,501,411,192,2559,1,1,1,1,1,0,17348,-1116,-5550,103,-858,-2452
I,1,914,506,415,191,2559,1,1,1,1,1,0,17228,158,-6444,-435,233,-1725
I,1,928,508,418,192,2559,1,1,1,1,1,0,17588,354,-5444,309,165,-1143
I,1,955,507,417,194,2559,1,1,1,1,1,0,17300,150,-5678,-1905,998,-661
I,1,989,506,418,194,2559,1,1,1,1,1,0,17702,76,-4406,-456,-151,215
I,1,1021,510,418,197,2559,1,1,1,1,1,0,17458,-210,-4550,-1452,511,-476
I,1,1055,509,419,194,2559,1,1,1,1,1,0,17514,4,-4386,-303,-332,-102
I,1,1076,509,419,194,2559,1,1,1,1,1,0,17360,-20,-4902,-1060,-4,-460
I,1,1112,510,421,196,2559,1,1,1,1,1,0,17880,286,-4432,-440,-683,-77
I,1,1142,509,420,197,2559,1,1,1,1,1,0,17426,-260,-5382,-279,-164,-272
I,1,1171,510,419,197,2559,1,1,1,1,1,0,17596,552,-5154,-613,-378,-136
I,1,1184,511,421,194,2559,1,1,1,1,1,0,17294,-40,-5296,-385,-62,60
I,1,1198,452,419,198,2559,1,1,1,1,1,0,17522,168,-4834,-204,-442,267
I,1,1199,511,422,201,2559,1,1,1,1,1,0,17326,-84,-5364,-646,-397,285
I,1,1200,511,419,199,2559,1,1,1,1,1,0,17752,170,-5356,-543,-257,300
I,1,1209,511,419,197,2559,1,1,1,1,1,0,17492,-132,-5380,-712,109,173
I,1,1206,511,422,201,2559,1,1,1,1,1,0,17664,138,-4878,-975,-141,184
I,1,1200,511,418,198,2559,1,1,1,1,1,0,17526,-52,-4734,-595,133,-6
I,1,1197,511,423,197,2559,1,1,1,1,1,0,17546,72,-4876,-852,-241,38
I,1,1194,511,423,202,2559,1,1,1,1,1,0,17544,-182,-4862,-311,-67,18
I,1,1185,511,423,197,2559,1,1,1,1,1,0,17752,-246,-4880,-314,-234,-464
I,1,1176,511,422,198,2559,1,1,1,1,1,0,17602,190,-5004,-487,218,-478
I,1,1172,511,426,198,2559,1,1,1,1,1,0,17628,252,-4792,143,-204,-217
I,1,1170,511,426,198,2559,1,1,1,1,1,0,17598,496,-4962,-692,-290,-218
I,1,1170,511,423,197,2559,1,1,1,1,1,0,17434,392,-5098,-148,65,-34
I,1,1165,511,421,199,2559,1,1,1,1,1,0,17596,250,-4822,-448,-10,-28
I,1,1159,511,421,201,2559,1,1,1,1,1,0,17654,200,-4784,-521,-90,-146
I,1,1155,511,423,199,2559,1,1,1,1,1,0,17582,232,-4876,-101,38,-96
I,1,1146,511,423,199,2559,1,1,1,1,1,0,17480,314,-4920,-487,-200,-159
J,1,1183,551,429,212,2533,0,0,0,1,1,1,17404,-5820,-1666,-249,1440,83
J,1,1175,551,429,214,2533,0,0,0,1,1,1,17404,-5820,-1666,-249,1440,83
J,1,1154,547,432,214,2533,0,0,0,1,1,1,17404,-5820,-1666,-249,1440,83
J,1,1136,547,431,213,2528,0,0,0,1,1,1,17404,-5820,-1666,-249,1440,83
J,1,1107,547,429,209,2529,0,0,0,1,1,1,17404,-5820,-1666,-249,1440,83
J,1,1105,548,427,206,2534,0,0,0,1,1,1,17404,-5820,-1666,-249,1440,83
J,1,1105,549,428,208,2530,0,0,0,1,1,1,17404,-5820,-1666,-249,1440,83
J,1,1103,548,430,207,2530,0,0,0,1,1,1,17404,-5820,-1666,-249,1440,83
J,1,1099,551,429,206,2534,0,0,0,1,1,1,17404,-5820,-1666,-249,1440,83
J,1,1095,552,430,207,2534,0,0,0,1,1,1,17404,-5820,-1666,-249,1440,83
J,1,1085,551,429,208,2534,0,0,0,1,1,1,17404,-5820,-1666,-249,1440,83
J,1,1085,550,428,207,2532,0,0,0,1,1,1,17404,-5820,-1666,-249,1440,83
J,1,1088,553,431,206,2531,0,0,0,1,1,1,17404,-5820,-1666,-249,1440,83
J,1,1083,551,430,210,2535,0,0,0,1,1,1,17404,-5820,-1666,-249,1440,83
J,1,1078,550,425,208,2533,0,0,0,1,1,1,17404,-5820,-1666,-249,1440,83
J,1,1075,551,430,208,2530,0,0,0,1,1,1,17404,-5820,-1666,-249,1440,83
J,1,1077,551,430,207,2531,0,0,0,1,1,1,17404,-5820,-1666,-249,1440,83
J,1,1088,553,429,207,2538,0,0,0,1,1,1,17404,-5820,-1666,-249,1440,83
J,1,1093,555,431,208,2539,0,0,0,1,1,1,17404,-5820,-1666,-249,1440,83
J,1,1087,553,430,208,2533,0,0,0,1,1,1,17404,-5820,-1666,-249,1440,83
J,1,1073,554,432,208,2531,0,0,0,1,1,1,17404,-5820,-1666,-249,1440,83
J,1,1072,551,430,208,2531,0,0,0,1,1,1,17404,-5820,-1666,-249,1440,83
J,1,1072,555,417,208,2534,0,0,0,1,1,1,17404,-5820,-1666,-249,1440,83
J,1,1072,554,430,208,2532,0,0,0,1,1,1,17404,-5820,-1666,-249,1440,83
J,1,1038,545,426,205,2529,0,0,0,1,1,1,17404,-5820,-1666,-249,1440,83
J,1,1021,543,426,205,2530,0,0,0,1,1,1,17404,-5820,-1666,-249,1440,83
J,1,1021,550,421,207,2533,0,0,0,1,1,1,17404,-5820,-1666,-249,1440,83
J,1,1020,547,428,207,2537,0,0,0,1,1,1,17404,-5820,-1666,-249,1440,83
J,1,1015,549,426,201,2533,0,0,0,1,1,1,17404,-5820,-1666,-249,1440,83
J,1,1018,549,431,206,2531,0,0,0,1,1,1,17404,-5820,-1666,-249,1440,83
J,1,479,505,409,160,2514,0,0,0,1,1,1,15022,7074,-11652,2475,3112,-1296
J,1,482,511,381,165,2522,0,0,0,1,1,1,15022,7074,-11652,2475,3112,-1296
J,1,493,523,380,176,2525,0,0,0,1,1,1,15022,7074,-11652,2475,3112,-1296
J,1,481,511,386,176,2523,0,0,0,1,1,1,15022,7074,-11652,2475,3112,-1296
J,1,461,509,386,165,2518,0,0,0,1,1,1,15022,7074,-11652,2475,3112,-1296
J,1,448,505,393,176,2515,0,0,0,1,1,1,15022,7074,-11652,2475,3112,-1296
J,1,438,509,389,176,2521,0,0,0,1,1,1,15022,7074,-11652,2475,3112,-1296
J,1,448,511,390,176,2513,0,0,0,1,1,1,15022,7074,-11652,2475,3112,-1296
J,1,452,511,386,176,2513,0,0,0,1,1,1,15022,7074,-11652,2475,3112,-1296
J,1,455,509,389,176,2513,0,0,0,1,1,1,15022,7074,-11652,2475,3112,-1296
J,1,465,511,386,177,2517,0,0,0,1,1,1,15022,7074,-11652,2475,3112,-1296
J,1,471,505,389,177,2515,0,0,0,1,1,1,15022,7074,-11652,2475,3112,-1296
J,1,528,511,390,177,2519,0,0,0,1,1,1,15022,7074,-11652,2475,3112,-1296
J,1,547,511,395,179,2517,0,0,0,1,1,1,15022,7074,-11652,2475,3112,-1296
J,1,560,510,391,181,2521,0,0,0,1,1,1,15022,7074,-11652,2475,3112,-1296
J,1,586,511,386,179,2518,0,0,0,1,1,1,15022,7074,-11652,2475,3112,-1296
J,1,607,511,395,185,2516,0,0,0,1,1,1,15022,7074,-11652,2475,3112,-1296
J,1,607,523,386,186,2523,0,0,0,1,1,0,15022,7074,-11652,2475,3112,-1296
J,1,590,525,384,186,2515,0,0,0,1,1,0,15022,7074,-11652,2475,3112,-1296
J,1,578,525,400,185,2518,0,0,0,1,1,0,15022,7074,-11652,2475,3112,-1296
J,1,574,522,400,185,2516,0,0,0,1,1,0,15022,7074,-11652,2475,3112,-1296
J,1,576,526,399,187,2521,0,0,0,1,1,0,15022,7074,-11652,2475,3112,-1296
J,1,585,527,316,186,2518,0,0,0,1,1,1,15022,7074,-11652,2475,3112,-1296
J,1,609,526,307,182,2519,0,0,0,1,1,1,15022,7074,-11652,2475,3112,-1296
J,1,619,528,394,186,2518,0,0,0,1,1,0,15022,7074,-11652,2475,3112,-1296
J,1,623,528,396,187,2523,0,0,0,1,1,0,15022,7074,-11652,2475,3112,-1296
J,1,626,524,398,187,2523,0,0,0,1,1,0,15022,7074,-11652,2475,3112,-1296
J,1,677,528,396,187,2522,0,0,0,1,1,1,15022,7074,-11652,2475,3112,-1296
J,1,689,528,399,185,2523,0,0,0,1,1,0,15022,7074,-11652,2475,3112,-1296
J,1,673,528,396,188,2523,0,0,0,1,1,0,15022,7074,-11652,2475,3112,-1296
J,1,576,0,416,178,2517,0,0,0,1,1,0,14200,-5120,-9206,701,4413,-3767
J,1,583,0,416,179,2516,0,0,0,1,1,0,14200,-5120,-9206,701,4413,-3767
J,1,539,0,416,181,2519,0,0,0,1,1,0,14200,-5120,-9206,701,4413,-3767
J,1,481,0,409,178,2511,0,0,0,1,1,0,14200,-5120,-9206,701,4413,-3767
J,1,444,534,412,177,2502,0,0,0,1,1,1,14200,-5120,-9206,701,4413,-3767
J,1,447,543,410,177,2505,0,0,0,1,1,1,14200,-5120,-9206,701,4413,-3767
J,1,488,550,417,177,2505,0,0,0,1,1,1,14200,-5120,-9206,701,4413,-3767
J,1,751,560,421,183,2503,0,0,0,1,1,0,14200,-5120,-9206,701,4413,-3767
J,1,945,574,423,180,2507,0,0,0,1,1,0,14200,-5120,-9206,701,4413,-3767
J,1,971,576,423,178,2507,0,0,0,1,1,0,14200,-5120,-9206,701,4413,-3767
J,1,849,581,421,184,2505,0,0,0,1,1,0,14200,-5120,-9206,701,4413,-3767
J,1,753,577,421,187,2508,0,0,0,1,1,0,14200,-5120,-9206,701,4413,-3767
J,1,719,576,426,186,2506,0,0,0,1,1,0,14200,-5120,-9206,701,4413,-3767
J,1,712,580,425,183,2508,0,0,0,1,1,0,14200,-5120,-9206,701,4413,-3767
J,1,720,581,420,181,2509,0,0,0,1,1,0,14200,-5120,-9206,701,4413,-3767
J,1,720,582,421,177,2511,0,0,0,1,1,0,14200,-5120,-9206,701,4413,-3767
J,1,718,586,423,179,2511,0,0,0,1,1,0,14200,-5120,-9206,701,4413,-3767
J,1,730,589,423,177,2511,0,0,0,1,1,0,14200,-5120,-9206,701,4413,-3767
J,1,769,576,418,180,2510,0,0,0,1,1,0,14200,-5120,-9206,701,4413,-3767
J,1,848,561,421,181,2511,0,0,0,1,1,0,14200,-5120,-9206,701,4413,-3767
J,1,868,563,419,181,2512,0,0,0,1,1,0,14200,-5120,-9206,701,4413,-3767
J,1,873,570,421,181,2510,0,0,0,1,1,0,14200,-5120,-9206,701,4413,-3767
J,1,875,576,425,179,2512,0,0,0,1,1,0,14200,-5120,-9206,701,4413,-3767
J,1,853,576,423,182,2511,0,0,0,1,1,0,14200,-5120,-9206,701,4413,-3767
J,1,823,576,426,182,2511,0,0,0,1,1,0,14200,-5120,-9206,701,4413,-3767
J,1,791,576,421,183,2512,0,0,0,1,1,0,14200,-5120,-9206,701,4413,-3767
J,1,789,576,421,182,2511,0,0,0,1,1,0,14200,-5120,-9206,701,4413,-3767
J,1,827,579,425,179,2512,0,0,0,1,1,0,14200,-5120,-9206,701,4413,-3767
J,1,867,576,425,181,2512,0,0,0,1,1,0,14200,-5120,-9206,701,4413,-3767
J,1,877,578,423,186,2512,0,0,0,1,1,0,14200,-5120,-9206,701,4413,-3767
J,1,466,493,407,192,2523,0,0,0,1,1,1,17304,-6000,-5284,5514,342,1919
J,1,480,504,404,181,2517,0,0,0,1,1,1,17304,-6000,-5284,5514,342,1919
J,1,496,495,402,184,2515,0,0,0,1,1,1,17304,-6000,-5284,5514,342,1919
J,1,761,494,403,193,2532,0,0,0,1,1,1,17304,-6000,-5284,5514,342,1919
J,1,778,490,400,189,2531,0,0,0,1,1,1,17304,-6000,-5284,5514,342,1919
J,1,683,494,402,192,2535,0,0,0,1,1,1,17304,-6000,-5284,5514,342,1919
J,1,675,490,401,192,2534,0,0,0,1,1,1,17304,-6000,-5284,5514,342,1919
J,1,691,481,410,192,2530,0,0,0,1,1,1,17304,-6000,-5284,5514,342,1919
J,1,695,496,407,192,2533,0,0,0,1,1,1,17304,-6000,-5284,5514,342,1919
J,1,799,499,412,194,2531,0,0,0,1,1,1,17304,-6000,-5284,5514,342,1919
J,1,881,499,409,195,2535,0,0,0,1,1,1,17304,-6000,-5284,5514,342,1919
J,1,919,495,407,202,2533,0,0,0,1,1,1,17304,-6000,-5284,5514,342,1919
J,1,977,498,414,197,2534,0,0,0,1,1,1,17304,-6000,-5284,5514,342,1919
J,1,1223,523,413,193,2539,0,0,0,1,1,1,17304,-6000,-5284,5514,342,1919
J,1,1427,525,413,192,2529,0,0,0,1,1,1,17304,-6000,-5284,5514,342,1919
J,1,1486,529,415,146,2533,0,0,0,1,1,1,17304,-6000,-5284,5514,342,1919
J,1,1482,506,414,194,2535,0,0,0,1,1,1,17304,-6000,-5284,5514,342,1919
J,1,1446,506,352,191,2533,0,0,0,1,1,1,17304,-6000,-5284,5514,342,1919
J,1,1344,506,383,194,2525,0,0,0,1,1,1,17304,-6000,-5284,5514,342,1919
J,1,1107,506,387,171,2525,0,0,0,1,1,1,17304,-6000,-5284,5514,342,1919
J,1,986,506,400,188,2521,0,0,0,1,1,1,17304,-6000,-5284,5514,342,1919
J,1,958,506,400,191,2523,0,0,0,1,1,1,17304,-6000,-5284,5514,342,1919
J,1,944,506,413,194,2527,0,0,0,1,1,1,17304,-6000,-5284,5514,342,1919
J,1,893,506,413,192,2527,0,0,0,1,1,1,17304,-6000,-5284,5514,342,1919
J,1,845,506,413,192,2530,0,0,0,1,1,1,17304,-6000,-5284,5514,342,1919
J,1,800,506,415,191,2525,0,0,0,1,1,1,17304,-6000,-5284,5514,342,1919
J,1,766,506,413,192,2529,0,0,0,1,1,1,17304,-6000,-5284,5514,342,1919
J,1,745,506,415,192,2527,0,0,0,1,1,1,17304,-6000,-5284,5514,342,1919
J,1,726,506,414,192,2528,0,0,0,1,1,1,17304,-6000,-5284,5514,342,1919
J,1,719,506,414,194,2527,0,0,0,1,1,1,17304,-6000,-5284,5514,342,1919
J,1,538,506,379,176,2531,0,0,1,1,1,1,15810,792,-6254,-8239,6282,-8285
J,1,477,506,385,173,2520,0,0,0,1,1,1,15810,792,-6254,-8239,6282,-8285
J,1,479,506,389,176,2512,0,0,0,1,1,1,15810,792,-6254,-8239,6282,-8285
J,1,486,506,389,176,2507,0,0,0,1,1,1,15810,792,-6254,-8239,6282,-8285
J,1,542,506,395,178,2512,0,0,0,1,1,1,15810,792,-6254,-8239,6282,-8285
J,1,579,506,400,185,2512,0,0,0,1,1,1,15810,792,-6254,-8239,6282,-8285
J,1,560,506,399,187,2515,0,0,0,1,1,1,15810,792,-6254,-8239,6282,-8285
J,1,553,506,401,189,2517,0,0,0,1,1,1,15810,792,-6254,-8239,6282,-8285
J,1,544,506,405,187,2518,0,0,0,1,1,1,15810,792,-6254,-8239,6282,-8285
J,1,528,497,409,189,2518,0,0,0,1,1,1,15810,792,-6254,-8239,6282,-8285
J,1,523,497,407,190,2518,0,0,0,1,1,1,15810,792,-6254,-8239,6282,-8285
J,1,511,496,410,192,2521,0,0,0,1,1,1,15810,792,-6254,-8239,6282,-8285
J,1,503,498,409,191,2517,0,0,0,1,1,1,15810,792,-6254,-8239,6282,-8285
J,1,499,497,411,189,2517,0,0,0,1,1,1,15810,792,-6254,-8239,6282,-8285
J,1,496,497,409,192,2517,0,0,0,1,1,1,15810,792,-6254,-8239,6282,-8285
J,1,509,497,405,192,2519,0,0,0,1,1,1,15810,792,-6254,-8239,6282,-8285
J,1,511,497,412,189,2523,0,0,0,1,1,1,15810,792,-6254,-8239,6282,-8285
J,1,511,497,407,192,2521,0,0,0,1,1,1,15810,792,-6254,-8239,6282,-8285
J,1,526,497,411,193,2520,0,0,0,1,1,1,15810,792,-6254,-8239,6282,-8285
J,1,528,497,410,187,2521,0,0,0,1,1,1,15810,792,-6254,-8239,6282,-8285
J,1,537,497,410,190,2518,0,0,0,1,1,1,15810,792,-6254,-8239,6282,-8285
J,1,565,497,410,191,2522,0,0,0,1,1,1,15810,792,-6254,-8239,6282,-8285
J,1,599,497,411,185,2517,0,0,0,1,1,1,15810,792,-6254,-8239,6282,-8285
J,1,647,497,412,186,2519,0,0,0,1,1,1,15810,792,-6254,-8239,6282,-8285
J,1,689,497,407,189,2521,0,0,0,1,1,1,15810,792,-6254,-8239,6282,-8285
J,1,701,497,411,187,2521,0,0,0,1,1,1,15810,792,-6254,-8239,6282,-8285
J,1,703,497,409,186,2517,0,0,0,1,1,1,15810,792,-6254,-8239,6282,-8285
J,1,706,497,415,189,2519,0,0,0,1,1,1,15810,792,-6254,-8239,6282,-8285
J,1,703,497,413,187,2523,0,0,0,1,1,1,15810,792,-6254,-8239,6282,-8285
J,1,698,497,414,192,2519,0,0,0,1,1,1,15810,792,-6254,-8239,6282,-8285
K,1,377,573,848,464,2609,1,1,1,1,1,1,18048,-2996,22,-482,-99,126
K,1,380,571,847,463,2608,1,1,1,1,1,1,18078,-2918,160,-671,-209,132
K,1,373,574,848,464,2608,1,1,1,1,1,1,18062,-2960,12,-477,-156,172
K,1,380,575,850,470,2609,1,1,1,1,1,1,18084,-3148,-8,-618,-252,186
K,1,377,576,848,471,2611,1,1,1,1,1,1,18146,-3014,144,-498,-169,141
K,1,377,575,849,468,2608,1,1,1,1,1,1,18128,-2926,132,-493,-282,144
K,1,377,574,847,471,2608,1,1,1,1,1,1,18182,-3078,96,-623,-140,32
K,1,375,576,848,473,2608,1,1,1,1,1,1,18154,-3040,44,-438,-257,76
K,1,373,576,847,467,2608,1,1,1,1,1,1,18106,-2954,82,-719,-200,-10
K,1,377,575,850,476,2608,1,1,1,1,1,1,18184,-2946,24,-500,-95,78
K,1,378,576,851,479,2608,1,1,1,1,1,1,18106,-2994,88,-607,-34,84
K,1,379,575,848,482,2609,1,1,1,1,1,1,18152,-3042,180,-523,-126,119
K,1,378,577,848,480,2608,1,1,1,1,1,1,18076,-3028,182,-666,-188,19
K,1,379,576,848,479,2609,1,1,1,1,1,1,18140,-3112,106,-529,-264,9
K,1,374,576,846,480,2608,1,1,1,1,1,1,18138,-2932,192,-354,-190,43
K,1,377,576,846,483,2610,1,1,1,1,1,1,18264,-2956,104,-645,-509,66
K,1,381,575,848,482,2611,1,1,1,1,1,1,18142,-2962,-74,-605,-147,-49
K,1,378,576,848,480,2611,1,1,1,1,1,1,18062,-2878,60,-578,-257,80
K,1,375,576,847,479,2612,1,1,1,1,1,1,18212,-2976,178,-392,-136,164
K,1,379,576,841,479,2609,1,1,1,1,1,1,18100,-2810,202,-523,-672,158
K,1,374,576,846,481,2608,1,1,1,1,1,1,18234,-2918,90,-858,-93,-42
K,1,375,576,845,484,2609,1,1,1,1,1,1,18094,-2948,142,-327,-342,150
K,1,374,575,845,485,2611,1,1,1,1,1,1,18152,-2898,132,-306,-436,167
K,1,374,576,841,483,2611,1,1,1,1,1,1,18112,-2996,88,-458,-443,122
K,1,374,574,839,481,2609,1,1,1,1,1,1,18150,-2942,-68,-153,-195,151
K,1,375,575,836,482,2608,1,1,1,1,1,1,18100,-2762,56,-679,-429,125
K,1,373,575,838,481,2609,1,1,1,1,1,1,18102,-3088,-34,-474,-392,185
K,1,375,575,839,487,2608,1,1,1,1,1,1,18042,-2978,18,-872,-863,186
K,1,374,576,839,496,2609,1,1,1,1,1,1,18272,-2882,-100,-402,-237,84
K,1,379,576,842,497,2613,1,1,1,1,1,1,18190,-2926,-202,-724,-235,-2
K,1,343,578,1219,647,2609,1,1,1,1,1,1,17782,-5064,-1636,621,1305,1608
K,1,347,580,1213,652,2613,1,1,1,1,1,1,18474,-4068,-62,-655,-157,216
K,1,349,576,1204,655,2608,1,1,1,1,1,1,18070,-3850,-244,891,1270,156
K,1,347,576,1189,656,2608,1,1,1,1,1,1,18094,-3006,506,60,382,187
K,1,350,576,1177,660,2608,1,1,1,1,1,1,17716,-4050,-192,91,82,201
K,1,351,576,1168,662,2612,1,1,1,1,1,1,17522,-3886,686,1131,-1242,537
K,1,349,576,1162,658,2608,1,1,1,1,1,1,18278,-3928,512,825,53,-338
K,1,345,573,1148,667,2608,1,1,1,1,1,1,17436,-4392,-254,214,-1051,-314
K,1,343,570,1137,663,2611,1,1,1,1,1,1,18324,-3344,460,1166,-1321,-716
K,1,337,562,1127,656,2609,1,1,1,1,1,1,17714,-3818,-446,596,-479,-551
K,1,334,560,1117,656,2610,1,1,1,1,1,1,18140,-3386,-388,1344,-1289,-400
K,1,335,555,1113,652,2610,1,1,1,1,1,1,17866,-2956,84,1472,209,-198
K,1,336,558,1104,649,2609,1,1,1,1,1,1,17652,-3358,230,1364,-845,-133
K,1,336,554,1074,641,2608,1,1,1,1,1,1,17352,-2898,52,1097,-1147,345
K,1,336,553,1022,638,2608,1,1,1,1,1,1,17352,-3206,-348,1125,-1865,1336
K,1,338,553,1015,637,2609,1,1,1,1,1,1,18078,-3416,-420,1920,-541,1959
K,1,337,554,1014,631,2609,1,1,1,1,1,1,18268,-4126,-196,1297,-338,1837
K,1,338,557,1006,625,2608,1,1,1,1,1,1,18038,-4156,318,2904,-299,2318
K,1,339,555,1005,624,2609,1,1,1,1,1,1,17980,-5914,-10,125,-660,633
K,1,340,556,1005,627,2613,1,1,1,1,1,1,18252,-4446,18,813,-526,194
K,1,342,556,999,630,2611,1,1,1,1,1,1,18418,-4606,194,-502,-676,-852
K,1,341,555,996,636,2608,1,1,1,1,1,1,18270,-4606,44,103,-1484,-908
K,1,340,553,998,633,2612,1,1,1,1,1,1,18266,-4770,-472,421,-627,-1784
K,1,342,550,998,633,2608,1,1,1,1,1,1,17792,-3430,-130,2824,-1383,-1409
K,1,341,547,1007,630,2609,1,1,1,1,1,1,17608,-3478,-1022,3345,-912,-1510
K,1,339,550,1002,625,2613,1,1,1,1,1,1,17912,-3628,-414,9661,760,1479
K,1,341,550,983,614,2611,1,1,1,1,1,1,17774,-3800,250,7936,-369,2464
K,1,345,551,974,615,2614,1,1,1,1,1,1,18220,-3240,542,9115,1264,2806
K,1,340,549,830,607,2609,1,1,1,1,1,1,17916,-4378,952,12505,1395,5106
K,1,343,554,905,605,2611,1,1,1,1,1,1,19180,-6960,28,9854,510,4308
K,1,341,511,1060,587,2608,1,1,1,1,1,1,17642,-5002,-404,1656,-2957,-2018
K,1,347,511,1062,585,2608,1,1,1,1,1,1,17566,-4048,-1372,1299,-3184,-2064
K,1,345,511,1061,592,2608,1,1,1,1,1,1,17648,-4322,-2596,1374,-3386,-1659
K,1,347,511,1061,587,2607,1,1,1,1,1,1,17790,-4556,-2512,1577,-2551,-558
K,1,348,511,1059,583,2611,1,1,1,1,1,1,17840,-4690,-3156,-354,-1527,-1127
K,1,350,511,1055,579,2607,1,1,1,1,1,1,17790,-4228,-2810,798,-2359,-1786
K,1,346,510,1051,581,2608,1,1,1,1,1,1,17808,-3170,-3374,806,-815,-2410
K,1,347,506,1072,576,2605,1,1,1,1,1,1,17128,-2434,-3762,346,-1139,-1619
K,1,347,508,1067,567,2608,1,1,1,1,1,1,17962,-2952,-2872,206,123,-633
K,1,343,507,1083,576,2608,1,1,1,1,1,1,17362,-2398,-3378,-333,-294,-354
K,1,343,502,1072,563,2608,1,1,1,1,1,1,17866,-3158,-3174,-65,-896,469
K,1,346,507,1085,565,2608,1,1,1,1,1,1,18050,-3290,-2940,149,84,193
K,1,346,507,1078,563,2608,1,1,1,1,1,1,17306,-2896,-2754,-840,-341,12
K,1,345,505,1062,560,2606,1,1,1,1,1,1,17692,-2642,-2750,893,217,441
K,1,349,509,976,561,2608,1,1,1,1,1,1,17310,-2082,-3478,1684,915,778
K,1,347,511,1015,564,2609,1,1,1,1,1,1,17664,-3906,-3284,3302,2216,2449
K,1,347,510,963,560,2607,1,1,1,1,1,1,17588,-1604,-1466,5643,1958,3465
K,1,350,523,1008,559,2608,1,1,1,1,1,1,17738,-5952,-1152,10955,4811,5879
K,1,352,523,1015,563,2608,1,1,1,1,1,1,16926,-5726,144,6326,1962,5308
K,1,351,525,1014,543,2608,1,1,1,1,1,1,17498,-7908,508,9202,2774,4544
K,1,354,528,955,541,2608,1,1,1,1,1,1,17398,-7444,1110,4813,966,2952
K,1,353,528,1008,538,2608,1,1,1,1,1,1,17184,-7220,1388,5566,1606,1720
K,1,354,528,971,523,2608,1,1,1,1,1,1,16414,-6422,1664,705,151,1321
K,1,350,528,1072,528,2606,1,1,1,1,1,1,16814,-6306,2092,2321,-175,1729
K,1,353,528,1073,530,2608,1,1,1,1,1,1,16682,-7090,1542,-377,-379,1756
K,1,352,528,1079,531,2608,1,1,1,1,1,1,16744,-7220,1720,164,-375,1928
K,1,353,529,1074,535,2606,1,1,1,1,1,1,16674,-8320,1500,1336,57,1639
K,1,353,530,1057,537,2608,1,1,1,1,1,1,16334,-8268,1744,-473,-234,850
K,1,353,530,1040,539,2607,1,1,1,1,1,1,16728,-8720,2282,1798,-331,537
K,1,353,529,1023,540,2607,1,1,1,1,1,1,16460,-8014,1924,-363,-847,-405
K,1,363,541,885,469,2609,1,1,1,1,1,1,17148,-5658,890,4,-332,405
K,1,367,541,881,469,2608,1,1,1,1,1,1,17462,-5924,1056,-73,-386,177
K,1,365,544,883,465,2611,1,1,1,1,1,1,17212,-5678,894,481,-789,188
K,1,365,539,892,464,2608,1,1,1,1,1,1,17378,-6026,838,622,59,-581
K,1,362,539,870,470,2608,1,1,1,1,1,1,17636,-5646,562,281,-973,-494
K,1,363,542,897,476,2608,1,1,1,1,1,1,17276,-5320,-178,-333,-578,-196
K,1,363,542,896,469,2608,1,1,1,1,1,1,17462,-5276,172,-589,282,220
K,1,360,542,891,467,2608,1,1,1,1,1,1,17410,-5046,934,-724,86,409
K,1,358,538,818,451,2607,1,1,1,1,1,1,17496,-5080,1484,904,-935,800
K,1,347,539,784,426,2607,1,1,1,1,1,1,16864,-6174,2926,2350,-1475,1330
K,1,336,535,716,409,2608,1,1,1,1,1,1,17542,-5240,5502,2599,-6314,1468
K,1,330,531,643,383,2607,1,1,1,1,1,1,16066,-2850,5278,7341,-13553,4421
K,1,326,559,528,369,2607,1,1,1,1,1,1,14682,-5796,2384,14515,-20304,8554
K,1,353,607,624,368,2607,1,1,1,1,1,1,13384,-7644,188,14041,-18976,8771
K,1,375,653,624,368,2606,1,1,1,1,1,1,13478,-10606,-2584,8607,-22616,9909
K,1,419,709,625,374,2608,1,1,1,1,1,1,10038,-11984,-5602,3066,-24569,11985
K,1,429,754,628,372,2605,1,1,1,1,1,1,8830,-14852,-10456,-6008,-22602,12559
K,1,310,716,582,396,2606,1,1,1,1,1,1,8124,-14586,-15596,-6293,-11142,4967
K,1,268,573,501,401,2608,1,1,1,1,1,1,6434,-12990,-16720,1374,-3368,-898
K,1,257,501,445,391,2608,1,1,1,1,1,1,7694,-12432,-15506,2597,7890,-2713
K,1,246,496,399,359,2607,1,1,1,1,1,1,7282,-11852,-11838,-2028,20501,-3840
K,1,253,486,368,327,2606,1,1,1,1,1,1,12126,-10294,-6258,-381,15341,-4613
K,1,264,493,363,304,2607,1,1,1,1,1,1,12870,-10882,-4234,-3830,3572,395
K,1,267,495,358,272,2606,1,1,1,1,1,1,12432,-9612,-3130,-6072,3349,-363
K,1,271,497,365,250,2605,1,1,1,1,1,1,13174,-8914,-3130,-83,60,425
K,1,272,506,366,250,2607,1,1,1,1,1,1,13986,-10008,-5024,3109,2042,-388
K,1,273,511,368,242,2607,1,1,1,1,1,1,11746,-10938,-6148,231,-1452,1565
K,1,275,507,370,233,2601,1,1,1,1,1,1,12512,-11338,-6850,3375,923,1008
K,1,285,498,375,232,2608,1,1,1,1,1,1,12212,-12026,-7246,1754,2233,-1077
K,1,302,486,381,222,2604,1,1,1,1,1,1,14112,-12312,-5486,782,5772,-3376
K,1,305,485,477,290,2608,1,1,1,1,1,1,16870,-6466,-3966,-667,-3736,1121
K,1,308,483,496,304,2608,1,1,1,1,1,1,17442,-8140,-4492,-2855,-2577,1074
K,1,307,486,573,318,2608,1,1,1,1,1,1,15264,-8062,-5074,-3765,-3606,1112
K,1,313,492,749,333,2608,1,1,1,1,1,1,16436,-9334,-6438,-3319,-1183,1181
K,1,319,498,990,366,2613,1,1,1,1,1,1,16370,-7750,-4948,-4499,-556,332
K,1,321,501,1173,385,2606,1,1,1,1,1,1,15336,-8286,-5380,-1520,1612,-643
K,1,314,502,1221,398,2597,1,1,1,1,1,1,16268,-6860,-4468,-2994,2018,-1342
K,1,320,502,1257,413,2606,1,1,1,1,1,1,14790,-7592,-5360,-2506,3093,-151
K,1,322,506,1362,450,2608,1,1,1,1,1,1,16348,-7056,-4190,-3273,2116,-846
K,1,330,507,1405,492,2610,1,1,1,1,1,1,16138,-6926,-3800,-2326,1373,-1297
K,1,335,505,1433,528,2608,1,1,1,1,1,1,16330,-6174,-3700,-1674,1251,-1154
K,1,336,506,1447,541,2608,1,1,1,1,1,1,16222,-6336,-4034,-1719,488,-820
K,1,336,507,1445,545,2608,1,1,1,1,1,1,16526,-6432,-4220,-877,480,-940
K,1,337,508,1425,547,2608,1,1,1,1,1,1,16070,-6434,-4486,-1830,1134,-1137
K,1,339,508,1405,551,2608,1,1,1,1,1,1,16606,-6310,-4348,-1291,371,-1388
K,1,336,507,1387,550,2608,1,1,1,1,1,1,16568,-5698,-4064,-1568,1586,-1314
K,1,337,426,1361,558,2607,1,1,1,1,1,1,16174,-4952,-3102,-757,2889,-1762
K,1,340,423,1347,566,2608,1,1,1,1,1,1,16516,-6092,-2842,-249,2473,-1592
K,1,337,410,1335,574,2607,1,1,1,1,1,1,17168,-4520,-2310,-3373,-881,168
K,1,337,423,1331,579,2602,1,1,1,1,1,1,16906,-4102,-3396,-1933,256,59
K,1,338,420,1334,581,2609,1,1,1,1,1,1,16298,-5220,-4480,-1938,-1220,1146
K,1,335,423,1337,586,2608,1,1,1,1,1,1,17602,-5994,-4594,-327,42,821
K,1,336,423,1328,583,2608,1,1,1,1,1,1,16696,-5656,-3696,-1939,323,913
K,1,340,415,1327,581,2608,1,1,1,1,1,1,17116,-6808,-3864,1087,-176,180
K,1,341,423,1314,581,2608,1,1,1,1,1,1,16778,-5828,-3508,-271,842,-485
K,1,339,423,1313,580,2611,1,1,1,1,1,1,16732,-5954,-3508,896,-115,-503
K,1,339,403,1310,579,2610,1,1,1,1,1,1,17102,-5548,-3280,-129,1246,-715
K,1,342,423,1301,576,2609,1,1,1,1,1,1,16726,-5972,-3126,-10,181,-691
K,1,342,433,1302,577,2608,1,1,1,1,1,1,17200,-5140,-3536,18,771,-1424
K,1,347,423,1296,576,2608,1,1,1,1,1,1,17240,-5160,-3122,205,493,-567
L,1,315,547,416,871,2640,1,1,1,1,1,1,0,0,0,0,0,0
L,1,319,549,419,874,2647,1,1,1,1,1,1,0,0,0,0,0,0
L,1,320,544,416,868,2646,1,1,1,1,1,1,0,0,0,0,0,0
L,1,315,546,421,871,2652,1,1,1,1,1,1,0,0,0,0,0,0
L,1,304,545,417,866,2649,1,1,1,1,1,1,0,0,0,0,0,0
L,1,313,547,419,873,2646,1,1,1,1,1,1,0,0,0,0,0,0
L,1,304,547,420,871,2646,1,1,1,1,1,1,0,0,0,0,0,0
L,1,314,550,420,871,2646,1,1,1,1,1,1,0,0,0,0,0,0
L,1,318,546,418,878,2646,1,1,1,1,1,1,0,0,0,0,0,0
L,1,316,548,418,880,2643,1,1,1,1,1,1,0,0,0,0,0,0
L,1,309,548,417,880,2650,1,1,1,1,1,1,0,0,0,0,0,0
L,1,320,549,415,883,2650,1,1,1,1,1,1,0,0,0,0,0,0
L,1,301,547,419,874,2647,1,1,1,1,1,1,0,0,0,0,0,0
L,1,300,548,422,871,2643,1,1,1,1,1,1,0,0,0,0,0,0
L,1,299,550,419,869,2650,1,1,1,1,1,1,0,0,0,0,0,0
L,1,318,548,417,879,2647,1,1,1,1,1,1,0,0,0,0,0,0
L,1,317,548,421,878,2650,1,1,1,1,1,1,0,0,0,0,0,0
L,1,315,546,421,882,2648,1,1,1,1,1,1,0,0,0,0,0,0
L,1,318,547,418,880,2646,1,1,1,1,1,1,0,0,0,0,0,0
L,1,320,545,423,880,2647,1,1,1,1,1,1,0,0,0,0,0,0
L,1,320,544,422,870,2647,1,1,1,1,1,1,0,0,0,0,0,0
L,1,315,545,427,874,2645,1,1,1,1,1,1,0,0,0,0,0,0
L,1,317,545,427,876,2645,1,1,1,1,1,1,0,0,0,0,0,0
L,1,320,545,423,874,2645,1,1,1,1,1,1,0,0,0,0,0,0
L,1,320,547,421,880,2646,1,1,1,1,1,1,0,0,0,0,0,0
L,1,321,547,426,871,2653,1,1,1,1,1,1,0,0,0,0,0,0
L,1,322,545,422,867,2650,1,1,1,1,1,1,0,0,0,0,0,0
L,1,320,548,417,870,2646,1,1,1,1,1,1,0,0,0,0,0,0
L,1,321,550,422,862,2651,1,1,1,1,1,1,0,0,0,0,0,0
L,1,319,549,423,865,2647,1,1,1,1,1,1,0,0,0,0,0,0
L,1,590,744,464,332,2638,1,1,1,1,1,1,0,0,0,0,0,0
L,1,528,635,411,310,2640,1,1,1,1,1,1,0,0,0,0,0,0
L,1,318,496,371,270,2642,1,1,1,1,1,1,0,0,0,0,0,0
L,1,254,448,365,258,2640,1,1,1,1,1,1,0,0,0,0,0,0
L,1,260,448,370,289,2639,1,1,1,1,1,1,0,0,0,0,0,0
L,1,268,464,367,327,2638,1,1,1,1,1,1,0,0,0,0,0,0
L,1,272,479,384,382,2637,1,1,1,1,1,1,0,0,0,0,0,0
L,1,288,489,386,436,2640,1,1,1,1,1,1,0,0,0,0,0,0
L,1,293,496,394,507,2640,1,1,1,1,1,1,0,0,0,0,0,0
L,1,299,507,397,576,2640,1,1,1,1,1,1,0,0,0,0,0,0
L,1,299,511,400,615,2640,1,1,1,1,1,1,0,0,0,0,0,0
L,1,304,526,401,645,2641,1,1,1,1,1,1,0,0,0,0,0,0
L,1,304,528,400,659,2641,1,1,1,1,1,1,0,0,0,0,0,0
L,1,306,529,403,676,2640,1,1,1,1,1,1,0,0,0,0,0,0
L,1,310,530,407,678,2640,1,1,1,1,1,1,0,0,0,0,0,0
L,1,307,536,405,685,2640,1,1,1,1,1,1,0,0,0,0,0,0
L,1,313,535,406,688,2639,1,1,1,1,1,1,0,0,0,0,0,0
L,1,315,539,413,688,2640,1,1,1,1,1,1,0,0,0,0,0,0
L,1,318,542,413,688,2641,1,1,1,1,1,1,0,0,0,0,0,0
L,1,315,544,412,695,2639,1,1,1,1,1,1,0,0,0,0,0,0
L,1,314,541,408,693,2640,1,1,1,1,1,1,0,0,0,0,0,0
L,1,318,545,414,701,2640,1,1,1,1,1,1,0,0,0,0,0,0
L,1,318,545,413,697,2640,1,1,1,1,1,1,0,0,0,0,0,0
L,1,314,543,411,704,2639,1,1,1,1,1,1,0,0,0,0,0,0
L,1,320,550,410,714,2638,1,1,1,1,1,1,0,0,0,0,0,0
L,1,325,550,413,720,2637,1,1,1,1,1,1,0,0,0,0,0,0
L,1,322,551,418,723,2640,1,1,1,1,1,1,0,0,0,0,0,0
L,1,321,546,413,721,2640,1,1,1,1,1,1,0,0,0,0,0,0
L,1,323,547,415,721,2640,1,1,1,1,1,1,0,0,0,0,0,0
L,1,325,552,417,723,2640,1,1,1,1,1,1,0,0,0,0,0,0
L,1,312,531,408,693,2640,1,1,1,1,1,1,0,0,0,0,0,0
L,1,311,528,407,692,2637,1,1,1,1,1,1,0,0,0,0,0,0
L,1,315,533,405,690,2633,1,1,1,1,1,1,0,0,0,0,0,0
L,1,317,534,404,689,2638,1,1,1,1,1,1,0,0,0,0,0,0
L,1,320,534,407,689,2634,1,1,1,1,1,1,0,0,0,0,0,0
L,1,311,534,410,688,2639,1,1,1,1,1,1,0,0,0,0,0,0
L,1,309,535,407,691,2639,1,1,1,1,1,1,0,0,0,0,0,0
L,1,319,533,404,693,2637,1,1,1,1,1,1,0,0,0,0,0,0
L,1,315,538,410,690,2638,1,1,1,1,1,1,0,0,0,0,0,0
L,1,317,536,407,691,2637,1,1,1,1,1,1,0,0,0,0,0,0
L,1,315,535,407,688,2638,1,1,1,1,1,1,0,0,0,0,0,0
L,1,316,534,410,688,2637,1,1,1,1,1,1,0,0,0,0,0,0
L,1,317,535,411,685,2637,1,1,1,1,1,1,0,0,0,0,0,0
L,1,318,534,407,683,2637,1,1,1,1,1,1,0,0,0,0,0,0
L,1,320,537,407,682,2636,1,1,1,1,1,1,0,0,0,0,0,0
L,1,317,538,410,683,2637,1,1,1,1,1,1,0,0,0,0,0,0
L,1,318,534,406,678,2635,1,1,1,1,1,1,0,0,0,0,0,0
L,1,315,531,406,675,2636,1,1,1,1,1,1,0,0,0,0,0,0
L,1,317,534,409,678,2638,1,1,1,1,1,1,0,0,0,0,0,0
L,1,322,533,407,680,2634,1,1,1,1,1,1,0,0,0,0,0,0
L,1,320,537,412,678,2637,1,1,1,1,1,1,0,0,0,0,0,0
L,1,309,534,411,683,2639,1,1,1,1,1,1,0,0,0,0,0,0
L,1,320,533,410,678,2637,1,1,1,1,1,1,0,0,0,0,0,0
L,1,320,536,409,678,2638,1,1,1,1,1,1,0,0,0,0,0,0
L,1,319,534,407,679,2637,1,1,1,1,1,1,0,0,0,0,0,0
L,1,320,535,408,679,2633,1,1,1,1,1,1,0,0,0,0,0,0
L,1,318,537,410,683,2636,1,1,1,1,1,1,0,0,0,0,0,0
L,1,314,539,410,682,2638,1,1,1,1,1,1,0,0,0,0,0,0
L,1,320,539,407,677,2635,1,1,1,1,1,1,0,0,0,0,0,0
L,1,318,538,410,682,2637,1,1,1,1,1,1,0,0,0,0,0,0
L,1,315,500,421,621,2639,1,1,1,1,1,1,0,0,0,0,0,0
L,1,314,501,415,618,2633,1,1,1,1,1,1,0,0,0,0,0,0
L,1,316,503,421,623,2633,1,1,1,1,1,1,0,0,0,0,0,0
L,1,311,505,418,622,2631,1,1,1,1,1,1,0,0,0,0,0,0
L,1,317,505,420,624,2637,1,1,1,1,1,1,0,0,0,0,0,0
L,1,316,507,416,618,2634,1,1,1,1,1,1,0,0,0,0,0,0
L,1,320,503,420,617,2633,1,1,1,1,1,1,0,0,0,0,0,0
L,1,315,507,416,618,2635,1,1,1,1,1,1,0,0,0,0,0,0
L,1,317,507,422,615,2632,1,1,1,1,1,1,0,0,0,0,0,0
L,1,318,506,416,608,2634,1,1,1,1,1,1,0,0,0,0,0,0
L,1,320,505,419,597,2634,1,1,1,1,1,1,0,0,0,0,0,0
L,1,316,511,415,587,2635,1,1,1,1,1,1,0,0,0,0,0,0
L,1,311,510,417,576,2634,1,1,1,1,1,1,0,0,0,0,0,0
L,1,317,511,416,564,2634,1,1,1,1,1,1,0,0,0,0,0,0
L,1,316,511,412,560,2633,1,1,1,1,1,1,0,0,0,0,0,0
L,1,319,511,411,554,2637,1,1,1,1,1,1,0,0,0,0,0,0
L,1,320,511,413,550,2634,1,1,1,1,1,1,0,0,0,0,0,0
L,1,318,508,415,548,2635,1,1,1,1,1,1,0,0,0,0,0,0
L,1,319,507,412,541,2633,1,1,1,1,1,1,0,0,0,0,0,0
L,1,320,506,415,546,2631,1,1,1,1,1,1,0,0,0,0,0,0
