Label,Mode,FlexPinky,FlexRing,FlexMiddle,FlexIndex,FlexThumb,TouchIndex,TouchMiddle,TouchRing,TouchPinky,TouchR,TouchU,AccX,AccY,AccZ,GyroX,GyroY,GyroZ
A,1,378,672,498,251,2612,1,1,1,1,1,0,17880,584,-3716,-287,-631,-126
A,1,354,670,498,307,2618,1,1,1,1,1,0,17896,1280,-3944,-536,-526,-214
A,1,354,657,456,241,2640,1,1,1,1,1,0,17708,1068,-4272,-858,-197,-212
A,1,358,658,479,278,2609,1,1,1,1,1,0,18300,1488,-3868,-1023,587,-419
A,1,368,634,494,269,2618,1,1,1,1,1,0,17600,888,-3512,-1273,-85,93
A,1,366,672,442,281,2623,1,1,1,1,1,0,18088,1236,-3500,-756,428,-190
A,1,369,646,467,256,2638,1,1,1,1,1,0,17860,1344,-3428,-632,-245,72
A,1,383,640,483,261,2608,1,1,1,1,1,0,17916,1564,-3144,-611,159,-15
A,1,375,656,472,257,2611,1,1,1,1,1,0,18000,960,-3380,-208,-201,249
A,1,335,660,474,243,2630,1,1,1,1,1,0,17948,1132,-3524,-330,-183,86
A,1,348,672,471,247,2613,1,1,1,1,1,0,17840,1208,-3792,-535,-313,168
A,1,352,646,477,269,2621,1,1,1,1,1,0,18140,948,-3440,-282,-178,186
A,1,365,656,465,270,2616,1,1,1,1,1,0,17800,1128,-3544,-665,-307,33
A,1,337,661,475,247,2615,1,1,1,1,1,0,17768,824,-3748,-216,-160,140
A,1,370,656,459,281,2607,1,1,1,1,1,0,17972,1124,-3560,-628,-306,-58
A,1,347,641,496,265,2603,1,1,1,1,1,0,18036,1172,-3392,-414,-516,78
A,1,357,673,471,245,2618,1,1,1,1,1,0,17848,1392,-3552,-464,-372,71
A,1,379,639,493,245,2620,1,1,1,1,1,0,17944,1152,-3696,-793,-308,34
A,1,367,658,464,272,2595,1,1,1,1,1,0,18048,920,-3616,-446,-243,22
A,1,358,644,489,232,2630,1,1,1,1,1,0,17896,1372,-3408,-716,-290,-12
A,1,379,656,495,236,2611,1,1,1,1,1,0,17936,1016,-3556,-283,-401,87
A,1,373,655,464,292,2613,1,1,1,1,1,0,17936,1372,-3360,-532,-441,-21
A,1,355,648,490,247,2621,1,1,1,1,1,0,17820,1280,-3852,-236,-523,194
A,1,344,643,510,231,2635,1,1,1,1,1,0,17984,1096,-3924,-484,-162,167
A,1,367,644,484,246,2631,1,1,1,1,1,0,17896,1044,-3600,-577,-431,129
A,1,372,675,462,247,2623,1,1,1,1,1,0,18016,1232,-3788,-305,-196,165
A,1,354,642,487,261,2626,1,1,1,1,1,0,17820,1120,-3696,-419,-324,76
A,1,394,630,501,255,2612,1,1,1,1,1,0,17824,1220,-3880,-441,-277,92
A,1,370,646,446,298,2594,1,1,1,1,1,0,17720,1276,-3908,-612,-1,13
A,1,358,650,464,258,2627,1,1,1,1,1,0,17832,1160,-3804,-681,-175,73
A,1,365,641,479,258,2608,1,1,1,1,1,0,18032,1276,-3540,-550,-115,186
A,1,377,648,473,257,2608,1,1,1,1,1,0,18000,1160,-3572,-780,-238,88
A,1,390,638,469,272,2619,1,1,1,1,1,0,17960,1328,-3668,-679,-266,189
A,1,358,666,461,271,2603,1,1,1,1,1,0,17916,960,-3512,-405,-206,159
A,1,348,650,496,247,2624,1,1,1,1,1,0,17924,1316,-3504,-461,-256,105
A,1,374,656,475,277,2624,1,1,1,1,1,0,17664,1176,-3660,-609,-238,116
A,1,355,668,464,251,2624,1,1,1,1,1,0,18008,1208,-3548,-557,-286,98
A,1,359,641,526,213,2612,1,1,1,1,1,0,18004,1248,-3344,-282,-384,169
A,1,337,671,449,278,2615,1,1,1,1,1,0,18152,1184,-3376,-424,-480,162
A,1,381,663,452,269,2629,1,1,1,1,1,0,18000,1112,-3640,-387,-63,-13
A,1,354,650,489,254,2624,1,1,1,1,1,0,17772,1292,-3664,-618,-388,43
A,1,364,652,483,262,2615,1,1,1,1,1,0,17952,940,-3656,-429,-158,72
A,1,375,681,448,293,2608,1,1,1,1,1,0,17728,1028,-3752,-453,-261,83
A,1,350,657,464,265,2613,1,1,1,1,1,0,18068,1496,-3460,-497,-396,113
A,1,349,629,499,237,2608,1,1,1,1,1,0,18000,1172,-3708,-495,-253,98
A,1,366,653,479,272,2608,1,1,1,1,1,0,18032,1208,-3592,-561,-476,120
A,1,369,662,478,256,2625,1,1,1,1,1,0,17940,1332,-3636,-493,-272,142
A,1,349,653,470,238,2617,1,1,1,1,1,0,17884,1340,-3536,-527,-451,197
A,1,363,641,475,269,2601,1,1,1,1,1,0,17872,1184,-3640,-436,-238,171
A,1,354,656,456,277,2614,1,1,1,1,1,0,17840,1188,-3684,-515,-176,96
A,1,336,667,474,249,2627,1,1,1,1,1,0,17976,1448,-3544,-628,-352,147
A,1,361,646,474,268,2608,1,1,1,1,1,0,17908,1012,-3756,-652,-253,158
A,1,386,660,463,268,2593,1,1,1,1,1,0,18040,1188,-3484,-508,-322,213
A,1,357,661,482,271,2609,1,1,1,1,1,0,17828,1224,-3612,-437,-267,191
A,1,371,647,490,226,2610,1,1,1,1,1,0,17924,1200,-3376,-595,-326,192
A,1,389,656,454,258,2627,1,1,1,1,1,0,17836,1008,-3704,-549,-63,82
A,1,384,659,438,297,2594,1,1,1,1,1,0,17896,1140,-3712,-572,-239,-39
A,1,320,677,473,240,2639,1,1,1,1,1,0,17924,1152,-3732,-647,-171,28
A,1,352,645,494,251,2606,1,1,1,1,1,0,17876,1320,-3556,-475,-171,42
A,1,378,659,457,277,2608,1,1,1,1,1,0,17912,1416,-3572,-615,-169,81
A,1,354,677,437,272,2613,1,1,1,1,1,0,17932,1232,-3476,-528,-179,74
A,1,373,654,501,241,2613,1,1,1,1,1,0,17772,1264,-3688,-504,-319,64
A,1,382,656,469,282,2609,1,1,1,1,1,0,17736,940,-3588,-302,-511,205
A,1,353,663,487,254,2614,1,1,1,1,1,0,18032,1404,-3428,-491,-271,2
A,1,343,651,485,247,2625,1,1,1,1,1,0,17900,1244,-3712,-637,-352,121
A,1,361,649,494,294,2606,1,1,1,1,1,0,18040,1124,-3616,-345,-115,178
A,1,367,671,464,288,2606,1,1,1,1,1,0,17852,1140,-3700,-434,-303,53
A,1,343,687,438,278,2609,1,1,1,1,1,0,17844,1232,-3344,-566,-480,-31
A,1,368,629,496,267,2607,1,1,1,1,1,0,17920,1336,-3640,-451,-498,57
A,1,385,642,477,276,2606,1,1,1,1,1,0,17884,1072,-3920,-564,-617,183
A,1,359,671,448,243,2615,1,1,1,1,1,0,17972,1456,-3952,-287,44,83
A,1,353,668,496,240,2628,1,1,1,1,1,0,17840,1068,-3696,-834,-189,61
A,1,362,642,509,267,2588,1,1,1,1,1,0,17936,1048,-3524,-368,-209,-6
A,1,368,655,482,254,2611,1,1,1,1,1,0,17860,1428,-3660,-275,-700,-7
A,1,354,656,506,253,2624,1,1,1,1,1,0,17868,1504,-3944,-292,-175,-33
A,1,384,640,509,216,2614,1,1,1,1,1,0,17564,1396,-4164,-716,-119,-8
A,1,387,652,464,286,2602,1,1,1,1,1,0,17916,1356,-3648,-578,-96,256
A,1,348,656,503,254,2618,1,1,1,1,1,0,17952,1216,-3428,-530,-100,268
A,1,349,651,486,259,2621,1,1,1,1,1,0,17960,1096,-3652,-713,-307,230
A,1,357,641,491,250,2622,1,1,1,1,1,0,18128,1156,-3684,-472,160,-58
A,1,387,643,463,263,2624,1,1,1,1,1,0,17688,1296,-3628,-693,-177,137
A,1,348,670,471,242,2613,1,1,1,1,1,0,17980,992,-3396,-363,-129,74
A,1,371,640,509,265,2606,1,1,1,1,1,0,17784,1760,-3248,-367,-39,-190
A,1,368,649,481,251,2612,1,1,1,1,1,0,17872,1440,-3476,-630,-247,207
A,1,375,653,454,259,2624,1,1,1,1,1,0,18092,1080,-3872,-354,-146,84
A,1,351,655,496,240,2625,1,1,1,1,1,0,18144,1380,-3632,-440,203,-18
A,1,361,672,483,274,2609,1,1,1,1,1,0,17772,1448,-3332,-560,-64,32
A,1,368,680,452,284,2608,1,1,1,1,1,0,17820,1236,-3568,-509,-148,93
A,1,352,647,487,241,2631,1,1,1,1,1,0,17856,1188,-3484,-154,-42,86
A,1,367,646,469,271,2607,1,1,1,1,1,0,17736,940,-3624,-312,312,-90
A,1,403,663,459,307,2593,1,1,1,1,1,0,17920,1304,-3444,-385,-445,57
A,1,306,641,501,296,2617,1,1,1,1,1,0,18084,1372,-3300,-319,411,-48
A,1,342,640,499,229,2623,1,1,1,1,1,0,18036,1200,-3368,-542,-216,-86
A,1,385,646,493,292,2585,1,1,1,1,1,0,18100,1556,-3332,-270,124,-69
A,1,345,662,473,257,2631,1,1,1,1,1,0,17860,1184,-3420,-532,215,-164
A,1,320,672,481,245,2629,1,1,1,1,1,0,17940,1584,-3116,-829,-227,-90
A,1,349,646,511,244,2596,1,1,1,1,1,0,17828,1588,-3128,-409,392,82
A,1,368,656,465,263,2607,1,1,1,1,1,0,17960,1576,-2916,-915,-270,98
A,1,368,647,466,279,2599,1,1,1,1,1,0,18172,1212,-2732,-526,37,164
A,1,347,656,494,266,2608,1,1,1,1,1,0,18020,1532,-3076,-463,-151,108
A,1,343,656,490,236,2612,1,1,1,1,1,0,17868,1504,-3280,-944,-149,172
A,1,379,655,460,289,2618,1,1,1,1,1,0,17988,1172,-2976,-191,-127,188
A,1,368,656,492,268,2615,1,1,1,1,1,0,17940,1620,-3212,-459,-113,56
A,1,370,638,464,267,2603,1,1,1,1,1,0,18012,1680,-3156,-526,-440,62
A,1,366,641,496,258,2614,1,1,1,1,1,0,18124,1492,-3216,-510,160,107
A,1,350,657,497,240,2627,1,1,1,1,1,0,17816,1388,-2908,-939,-471,117
A,1,356,656,470,273,2618,1,1,1,1,1,0,18264,1248,-3020,-554,-161,5
A,1,373,663,431,262,2599,1,1,1,1,1,0,17756,1748,-3232,-166,-306,169
A,1,368,655,480,224,2630,1,1,1,1,1,0,18096,1580,-3060,-814,-190,194
A,1,353,644,503,251,2619,1,1,1,1,1,0,17892,1332,-3080,-442,-137,169
A,1,369,642,470,294,2597,1,1,1,1,1,0,18072,1516,-2904,-566,-418,45
A,1,368,656,490,252,2611,1,1,1,1,1,0,17764,1332,-3276,-837,335,-240
A,1,344,655,511,237,2636,1,1,1,1,1,0,18088,1520,-3056,-546,-573,149
A,1,383,653,528,232,2623,1,1,1,1,1,0,18160,1864,-3112,-674,135,70
A,1,354,647,506,261,2622,1,1,1,1,1,0,17780,1312,-3168,-805,-390,130
A,1,378,651,482,272,2605,1,1,1,1,1,0,18256,1552,-2868,-412,-390,105
A,1,368,656,482,257,2625,1,1,1,1,1,0,17792,1728,-3340,-447,-192,132
A,1,363,675,472,271,2602,1,1,1,1,1,0,18088,1480,-2908,-853,-638,167
A,1,391,629,498,257,2615,1,1,1,1,1,0,18112,1480,-3212,-6,166,145
A,1,343,659,482,271,2617,1,1,1,1,1,0,18048,1692,-3332,-611,-819,212
A,1,378,653,475,262,2610,1,1,1,1,1,0,18236,1444,-3056,-220,-501,186
A,1,369,656,478,261,2620,1,1,1,1,1,0,17936,1392,-2964,-541,-404,93
A,1,346,682,458,258,2614,1,1,1,1,1,0,17988,1508,-3160,-310,-159,83
A,1,368,633,483,244,2618,1,1,1,1,1,0,17820,1472,-3424,-450,-334,125
A,1,355,650,495,272,2622,1,1,1,1,1,0,18080,1420,-3048,-443,-391,174
A,1,364,667,469,263,2624,1,1,1,1,1,0,17868,1448,-3260,-566,7,10
A,1,359,650,523,240,2608,1,1,1,1,1,0,17940,1336,-3160,-593,-538,141
A,1,368,650,465,282,2590,1,1,1,1,1,0,18168,1648,-3100,-481,-175,49
A,1,365,678,463,266,2627,1,1,1,1,1,0,17656,1368,-3204,-447,-48,166
A,1,381,666,469,250,2611,1,1,1,1,1,0,18124,1196,-3424,-627,63,168
A,1,351,638,482,260,2608,1,1,1,1,1,0,17656,1316,-3424,-715,214,-32
A,1,365,656,451,289,2605,1,1,1,1,1,0,18248,1624,-2868,-690,-441,214
A,1,337,677,464,247,2603,1,1,1,1,1,0,18140,1692,-2844,-560,-94,135
A,1,374,662,526,247,2608,1,1,1,1,1,0,18088,1508,-3372,-621,-443,229
A,1,388,644,496,282,2608,1,1,1,1,1,0,18036,1224,-3068,-455,-265,135
A,1,368,655,467,265,2623,1,1,1,1,1,0,17896,1536,-2832,-412,-326,68
A,1,325,671,467,257,2624,1,1,1,1,1,0,17988,1588,-2956,-482,-473,40
A,1,369,647,496,247,2634,1,1,1,1,1,0,17748,1412,-3336,-649,-266,107
A,1,386,637,476,273,2609,1,1,1,1,1,0,17980,1488,-3224,-530,-219,112
A,1,368,656,489,258,2618,1,1,1,1,1,0,18128,1588,-3220,-583,-156,109
A,1,367,650,487,250,2627,1,1,1,1,1,0,18068,1508,-3188,-350,-330,175
A,1,397,624,496,259,2609,1,1,1,1,1,0,18084,1496,-3144,-835,-247,96
A,1,365,652,497,247,2627,1,1,1,1,1,0,17760,1460,-3352,-512,109,75
A,1,382,645,453,272,2621,1,1,1,1,1,0,18020,1648,-2788,-779,-230,116
A,1,382,644,499,275,2609,1,1,1,1,1,0,17936,1644,-2996,-513,-85,195
A,1,357,639,475,255,2602,1,1,1,1,1,0,17924,1440,-3028,-472,-383,230
A,1,363,655,475,246,2631,1,1,1,1,1,0,18232,1508,-3064,-613,-294,147
A,1,346,645,500,251,2602,1,1,1,1,1,0,17956,1528,-3100,-419,12,69
A,1,352,644,465,274,2613,1,1,1,1,1,0,18032,1280,-2864,-503,-485,170
A,1,356,662,487,257,2621,1,1,1,1,1,0,18020,1492,-3336,-366,-4,42
A,1,357,656,542,237,2605,1,1,1,1,1,0,17860,1332,-3208,-595,-244,21
A,1,378,631,510,285,2601,1,1,1,1,1,0,17952,1768,-2892,-543,-33,22
A,1,357,655,500,260,2609,1,1,1,1,1,0,17700,1420,-3232,-691,-166,74
A,1,384,645,462,256,2624,1,1,1,1,1,0,18280,1496,-2936,-529,-470,230
A,1,372,644,486,270,2602,1,1,1,1,1,0,17872,1556,-3296,-377,61,128
A,1,400,643,493,276,2607,1,1,1,1,1,0,18080,1444,-3044,-575,-727,161
A,1,385,660,497,261,2614,1,1,1,1,1,0,18104,1672,-3304,-497,47,206
A,1,352,627,506,247,2613,1,1,1,1,1,0,17616,1184,-3180,-519,-281,124
A,1,381,678,496,246,2630,1,1,1,1,1,0,18324,1472,-2968,-447,-511,121
A,1,384,666,447,278,2607,1,1,1,1,1,0,17852,1432,-3360,-446,168,16
A,1,342,645,495,272,2630,1,1,1,1,1,0,18148,1620,-2924,-418,-741,147
A,1,391,626,509,247,2607,1,1,1,1,1,0,18124,1312,-2812,-308,-214,54
A,1,368,667,471,259,2606,1,1,1,1,1,0,17956,1476,-3432,-427,-457,31
A,1,355,656,478,250,2626,1,1,1,1,1,0,18012,1492,-3204,-416,-348,80
A,1,370,632,511,250,2623,1,1,1,1,1,0,17620,1616,-3324,-560,-147,82
A,1,371,673,496,256,2608,1,1,1,1,1,0,18072,1480,-2952,-720,-607,212
A,1,361,653,471,268,2609,1,1,1,1,1,0,17956,1428,-3212,-402,-19,14
A,1,362,655,504,240,2609,1,1,1,1,1,0,18268,1680,-3188,-440,-698,123
A,1,371,640,491,273,2602,1,1,1,1,1,0,18092,1452,-3228,-484,76,145
A,1,383,644,461,273,2613,1,1,1,1,1,0,17720,1292,-3424,-797,-773,295
A,1,347,685,457,269,2630,1,1,1,1,1,0,18224,1560,-2948,-461,-315,139
A,1,370,672,465,258,2625,1,1,1,1,1,0,17600,964,-3736,-979,-46,-75
A,1,389,662,449,286,2606,1,1,1,1,1,0,18096,1488,-3400,-55,-429,156
A,1,361,675,480,268,2619,1,1,1,1,1,0,17880,1952,-3332,-687,-44,38
A,1,352,642,499,239,2623,1,1,1,1,1,0,18056,1252,-3036,-565,-418,165
A,1,368,673,454,288,2607,1,1,1,1,1,0,18112,1684,-3300,-317,-51,115
A,1,387,669,448,260,2627,1,1,1,1,1,0,17656,1212,-3380,-578,-341,124
A,1,355,659,465,271,2617,1,1,1,1,1,0,17976,956,-3392,-513,-206,41
A,1,357,651,509,245,2608,1,1,1,1,1,0,17728,1728,-3324,-341,-80,9
A,1,352,675,466,253,2622,1,1,1,1,1,0,17940,1396,-3376,-1008,-450,39
A,1,354,679,474,256,2621,1,1,1,1,1,0,17816,1252,-3352,-263,-121,146
A,1,381,655,451,247,2634,1,1,1,1,1,0,18088,1976,-3084,-249,-13,144
A,1,384,638,489,291,2589,1,1,1,1,1,0,17832,1320,-3576,-809,0,-5
A,1,355,677,483,299,2619,1,1,1,1,1,0,17920,1312,-3184,-518,-601,223
A,1,370,663,474,250,2608,1,1,1,1,1,0,17872,1668,-2968,-337,165,105
A,1,375,646,477,242,2617,1,1,1,1,1,0,17808,1124,-3416,-509,-680,126
A,1,368,656,455,296,2617,1,1,1,1,1,0,18136,1540,-3064,-148,-427,90
A,1,350,662,474,257,2625,1,1,1,1,1,0,17780,1504,-3516,-567,-16,29
A,1,368,626,482,247,2610,1,1,1,1,1,0,18176,1300,-3252,-638,-674,119
A,1,367,640,507,272,2587,1,1,1,1,1,0,18180,1752,-3220,-195,113,83
A,1,369,670,464,253,2608,1,1,1,1,1,0,17848,1592,-3124,-809,-493,132
A,1,355,653,496,256,2629,1,1,1,1,1,0,17992,1592,-3728,-528,160,255
A,1,341,639,497,250,2602,1,1,1,1,1,0,17836,1404,-3352,-825,14,125
A,1,386,656,466,273,2608,1,1,1,1,1,0,17972,1516,-3004,-585,-295,143
A,1,384,654,466,277,2608,1,1,1,1,1,0,18064,1512,-3096,-587,-65,78
A,1,346,635,510,258,2609,1,1,1,1,1,0,17920,1488,-3184,-640,-302,92
A,1,382,656,451,272,2618,1,1,1,1,1,0,17844,1216,-3352,-522,-260,240
A,1,355,674,493,282,2625,1,1,1,1,1,0,18188,1412,-3036,-343,81,23
A,1,336,665,495,240,2635,1,1,1,1,1,0,17572,1444,-3152,-811,-202,-13
A,1,373,640,499,257,2608,1,1,1,1,1,0,18196,1748,-3096,-245,-528,248
B,1,1216,1840,912,581,2559,1,1,1,1,1,0,16824,6848,-1768,-227,145,321
B,1,1219,1811,909,564,2551,1,1,1,1,1,0,17104,6228,-1568,-798,-539,120
B,1,1250,1829,885,585,2555,1,1,1,1,1,0,16764,7020,-1704,-355,-6,103
B,1,1218,1842,906,571,2559,1,1,1,1,1,0,16756,6532,-1692,-972,-528,112
B,1,1215,1857,871,569,2592,1,1,1,1,1,0,16796,6612,-1636,-398,-130,185
B,1,1218,1841,891,575,2559,1,1,1,1,1,0,16776,6728,-1608,-657,-194,112
B,1,1217,1850,880,583,2559,1,1,1,1,1,0,16860,6712,-1528,-643,-73,60
B,1,1200,1843,925,564,2605,1,1,1,1,1,0,16832,6604,-1444,-509,-327,102
B,1,1230,1854,880,576,2555,1,1,1,1,1,0,16900,6832,-1400,-372,-53,123
B,1,1209,1842,896,583,2545,1,1,1,1,1,0,16832,6556,-1580,-471,-372,77
B,1,1214,1854,874,588,2559,1,1,1,1,1,0,16716,6452,-1540,-287,-542,74
B,1,1206,1850,911,562,2587,1,1,1,1,1,0,16712,6604,-1640,-525,-474,-37
B,1,1271,1867,865,613,2559,1,1,1,1,1,0,16800,6868,-1664,-248,-164,28
B,1,1212,1874,899,586,2559,1,1,1,1,1,0,16696,7040,-1516,-532,-115,97
B,1,1238,1855,886,589,2581,1,1,1,1,1,0,17016,6640,-1608,-812,-510,161
B,1,1237,1845,887,567,2555,1,1,1,1,1,0,16832,6824,-1536,-266,-107,174
B,1,1214,1840,888,581,2559,1,1,1,1,1,0,17016,6512,-1428,-748,-505,67
B,1,1207,1853,922,541,2579,1,1,1,1,1,0,16792,7024,-1520,-265,-62,65
B,1,1216,1845,901,579,2559,1,1,1,1,1,0,16744,6464,-1380,-565,-682,108
B,1,1227,1843,887,595,2559,1,1,1,1,1,0,16908,6816,-1932,-321,-282,195
B,1,1219,1853,886,576,2559,1,1,1,1,1,0,16932,6560,-1972,-407,-331,-8
B,1,1205,1842,886,571,2559,1,1,1,1,1,0,17036,6784,-1876,-681,-328,224
B,1,1229,1832,900,583,2559,1,1,1,1,1,0,16912,6664,-1740,-322,-28,47
B,1,1231,1859,869,583,2553,1,1,1,1,1,0,17044,6552,-1556,-468,-303,164
B,1,1230,1843,882,559,2583,1,1,1,1,1,0,16928,6852,-1652,-607,-118,25
B,1,1234,1841,896,581,2558,1,1,1,1,1,0,16976,6444,-1616,-513,-392,75
B,1,1222,1854,850,592,2551,1,1,1,1,1,0,16752,6844,-1884,-636,-70,33
B,1,1232,1841,899,576,2589,1,1,1,1,1,0,16856,6812,-1656,-563,-314,76
B,1,1232,1841,895,562,2593,1,1,1,1,1,0,16928,6864,-1624,-402,1,95
B,1,1232,1856,893,585,2559,1,1,1,1,1,0,16872,6540,-1680,-415,-173,55
B,1,1217,1849,885,573,2590,1,1,1,1,1,0,16744,6680,-1724,-630,-175,61
B,1,1242,1839,898,585,2549,1,1,1,1,1,0,16884,6672,-1516,-521,-470,102
B,1,1226,1845,931,579,2549,1,1,1,1,1,0,16672,6992,-1600,-431,-99,124
B,1,1249,1840,870,578,2592,1,1,1,1,1,0,16932,6704,-1704,-323,-264,163
B,1,1200,1842,905,578,2559,1,1,1,1,1,0,16892,6656,-1392,-390,91,-93
B,1,1215,1820,923,571,2559,1,1,1,1,1,0,16692,7016,-1904,-872,-293,-15
B,1,1229,1835,901,579,2581,1,1,1,1,1,0,17216,6624,-1528,90,-23,89
B,1,1227,1862,883,557,2607,1,1,1,1,1,0,16696,6796,-1600,-715,-452,117
B,1,1241,1854,883,560,2597,1,1,1,1,1,0,16864,6748,-1692,-287,-306,81
B,1,1218,1849,880,574,2557,1,1,1,1,1,0,16672,6808,-1804,-541,-368,-71
B,1,1227,1843,849,594,2559,1,1,1,1,1,0,16828,6908,-1608,-154,-190,215
B,1,1223,1840,937,555,2559,1,1,1,1,1,0,16676,6860,-1896,-1122,-263,-77
B,1,1200,1821,933,560,2557,1,1,1,1,1,0,16880,6780,-1520,-143,-174,199
B,1,1238,1839,914,592,2559,1,1,1,1,1,0,16768,7016,-1800,-880,45,160
B,1,1206,1837,882,571,2559,1,1,1,1,1,0,17076,6812,-1520,-576,-229,150
B,1,1201,1840,896,570,2586,1,1,1,1,1,0,16812,6660,-1732,-674,109,79
B,1,1251,1805,911,561,2541,1,1,1,1,1,0,16948,6756,-1100,-410,-316,211
B,1,1213,1840,870,599,2559,1,1,1,1,1,0,16736,6808,-1736,-739,-353,225
B,1,1227,1809,913,565,2585,1,1,1,1,1,0,16972,6664,-1636,-443,-234,58
B,1,1213,1824,899,575,2559,1,1,1,1,1,0,16720,6972,-1436,-525,-158,240
B,1,1247,1839,877,607,2542,1,1,1,1,1,0,16952,6840,-1584,-733,-288,16
B,1,1238,1803,922,560,2581,1,1,1,1,1,0,16864,6772,-1432,-363,-188,57
B,1,1242,1814,896,594,2551,1,1,1,1,1,0,16816,6996,-1612,-377,-318,220
B,1,1215,1833,866,574,2549,1,1,1,1,1,0,16672,6856,-1928,-810,-353,99
B,1,1217,1833,894,583,2559,1,1,1,1,1,0,16864,6684,-1708,-272,110,319
B,1,1179,1842,907,576,2586,1,1,1,1,1,0,16612,6756,-1576,-1127,-164,149
B,1,1229,1822,886,608,2531,1,1,1,1,1,0,16988,6552,-1208,-308,0,43
B,1,1201,1829,894,587,2558,1,1,1,1,1,0,16812,6976,-1324,-636,-335,110
B,1,1217,1819,912,574,2559,1,1,1,1,1,0,16952,6688,-1408,-48,-463,262
B,1,1217,1816,897,571,2557,1,1,1,1,1,0,16812,6756,-1776,-731,-521,32
B,1,1220,1838,871,618,2559,1,1,1,1,1,0,16908,6716,-1652,13,-146,65
B,1,1217,1825,912,558,2588,1,1,1,1,1,0,16604,6908,-1648,-723,-525,98
B,1,1232,1838,874,590,2559,1,1,1,1,1,0,16944,6580,-1700,-154,-177,167
B,1,1204,1834,912,576,2551,1,1,1,1,1,0,16640,6924,-1848,-897,-288,45
B,1,1210,1841,864,565,2593,1,1,1,1,1,0,16964,6572,-1548,-129,-206,155
B,1,1212,1808,917,566,2559,1,1,1,1,1,0,16844,7108,-1464,-615,-705,577
B,1,1209,1824,910,595,2548,1,1,1,1,1,0,16892,6096,-2604,-548,-607,-21
B,1,1228,1808,866,596,2580,1,1,1,1,1,0,16684,6768,-1936,-605,-302,354
B,1,1197,1815,902,568,2585,1,1,1,1,1,0,16964,6640,-1560,-393,-313,211
B,1,1232,1808,907,583,2559,1,1,1,1,1,0,16836,6504,-1600,-461,-558,414
B,1,1207,1808,910,582,2559,1,1,1,1,1,0,16960,6632,-1952,-153,-176,348
B,1,1217,1837,870,585,2593,1,1,1,1,1,0,16912,6564,-1700,-758,-770,319
B,1,1202,1801,923,574,2559,1,1,1,1,1,0,16872,6612,-2104,-436,-240,230
B,1,1232,1808,895,576,2559,1,1,1,1,1,0,16912,6040,-2088,-713,-867,123
B,1,1200,1835,876,585,2599,1,1,1,1,1,0,16980,6628,-1796,-224,299,-158
B,1,1226,1796,922,570,2559,1,1,1,1,1,0,16980,6324,-1916,-857,-547,-183
B,1,1213,1797,912,575,2549,1,1,1,1,1,0,16692,6928,-2016,-290,133,-61
B,1,1229,1822,879,576,2559,1,1,1,1,1,0,16904,6356,-1800,-528,-272,12
B,1,1187,1829,896,566,2583,1,1,1,1,1,0,16844,6856,-1936,-871,-162,216
B,1,1240,1808,900,591,2559,1,1,1,1,1,0,17100,6220,-1660,-99,-504,11
B,1,1262,1792,912,591,2550,1,1,1,1,1,0,16956,6908,-1872,-804,-16,22
B,1,1203,1819,908,559,2559,1,1,1,1,1,0,17020,6396,-1836,-419,-615,48
B,1,1216,1811,894,561,2587,1,1,1,1,1,0,16608,6696,-1920,-698,-202,167
B,1,1220,1807,921,549,2559,1,1,1,1,1,0,16964,6368,-2068,-30,85,-63
B,1,1197,1798,868,583,2559,1,1,1,1,1,0,16656,6928,-1808,-1169,-223,-58
B,1,1199,1806,899,573,2559,1,1,1,1,1,0,16836,6864,-1864,-186,343,285
B,1,1200,1795,915,560,2559,1,1,1,1,1,0,17072,6180,-1648,-985,-349,19
B,1,1214,1807,896,579,2559,1,1,1,1,1,0,16928,6424,-1716,-288,214,28
B,1,1225,1834,902,577,2559,1,1,1,1,1,0,16892,6620,-1868,-873,-208,-207
B,1,1232,1818,885,586,2559,1,1,1,1,1,0,16696,7228,-1304,-434,-81,148
B,1,1248,1794,893,583,2558,1,1,1,1,1,0,16712,6800,-1696,-454,-168,300
B,1,1229,1799,934,553,2559,1,1,1,1,1,0,16956,6348,-1636,-501,-454,318
B,1,1194,1808,912,550,2590,1,1,1,1,1,0,16952,6464,-1736,-318,101,174
B,1,1230,1790,896,575,2525,1,1,1,1,1,0,17012,6408,-1804,-800,-331,-42
B,1,1203,1801,852,592,2559,1,1,1,1,1,0,16964,6776,-1568,-604,10,1
B,1,1178,1825,887,553,2557,1,1,1,1,1,0,16920,6572,-1260,-621,-670,80
B,1,1221,1791,899,560,2554,1,1,1,1,1,0,16812,6616,-1908,-338,-71,-3
B,1,1205,1796,879,570,2559,1,1,1,1,1,0,16836,6644,-1840,-597,-387,-144
B,1,1198,1814,869,561,2583,1,1,1,1,1,0,16592,7100,-2072,-262,189,123
B,1,1217,1780,896,559,2559,1,1,1,1,1,0,16824,6648,-1828,-814,-325,154
B,1,1212,1776,909,575,2558,1,1,1,1,1,0,16720,6668,-1660,-104,245,131
B,1,1195,1808,868,564,2559,1,1,1,1,1,0,17060,6680,-1400,-710,-338,157
B,1,1193,1803,881,568,2559,1,1,1,1,1,0,16712,6648,-1608,-348,12,92
B,1,1216,1783,898,562,2544,1,1,1,1,1,0,17020,6344,-1488,-419,-293,265
B,1,1251,1799,875,573,2559,1,1,1,1,1,0,16640,7000,-1732,-748,-292,39
B,1,1190,1791,922,537,2590,1,1,1,1,1,0,16980,6660,-1372,-76,-233,269
B,1,1226,1800,885,571,2583,1,1,1,1,1,0,16708,6904,-1960,-637,-351,195
B,1,1233,1786,901,590,2559,1,1,1,1,1,0,17068,6340,-1952,-317,-168,365
B,1,1206,1793,876,559,2559,1,1,1,1,1,0,16956,6416,-1872,-955,-243,41
B,1,1199,1813,871,564,2559,1,1,1,1,1,0,16972,6692,-1604,-462,187,-149
B,1,1213,1777,893,572,2559,1,1,1,1,1,0,16720,6904,-1244,-984,-458,62
B,1,1222,1815,845,578,2559,1,1,1,1,1,0,16692,6924,-1584,-12,-30,237
B,1,1211,1776,863,557,2559,1,1,1,1,1,0,16920,6360,-1828,-584,-289,173
B,1,1190,1795,884,556,2579,1,1,1,1,1,0,16920,6720,-1700,-354,461,126
B,1,1186,1791,882,560,2559,1,1,1,1,1,0,17112,6736,-1304,-733,-752,236
B,1,1177,1827,864,565,2559,1,1,1,1,1,0,16932,6656,-1380,-346,448,234
B,1,1189,1793,889,563,2586,1,1,1,1,1,0,17056,6684,-1156,-966,-692,226
B,1,1226,1779,870,575,2559,1,1,1,1,1,0,16924,6388,-1600,-127,66,-163
B,1,1190,1802,880,559,2559,1,1,1,1,1,0,16916,6528,-1292,-666,-564,-95
B,1,1194,1776,918,558,2559,1,1,1,1,1,0,16524,7392,-1596,-503,-69,920
B,1,1225,1785,907,555,2543,1,1,1,1,1,0,16856,6696,-1824,-472,-492,475
B,1,1207,1788,888,566,2559,1,1,1,1,1,0,16964,6560,-1964,-650,534,341
B,1,1199,1808,855,576,2559,1,1,1,1,1,0,17244,6072,-1672,-954,-252,213
B,1,1170,1799,893,549,2585,1,1,1,1,1,0,16960,6512,-1060,-661,537,37
B,1,1217,1763,893,571,2559,1,1,1,1,1,0,17052,6456,-600,-577,-803,-37
B,1,1199,1818,877,565,2559,1,1,1,1,1,0,16920,6720,-1036,-144,-315,-264
B,1,1194,1781,897,563,2559,1,1,1,1,1,0,16964,6252,-1668,-171,-653,-238
B,1,1201,1793,863,561,2551,1,1,1,1,1,0,16772,6648,-2296,-671,-389,-73
B,1,1210,1792,854,543,2582,1,1,1,1,1,0,16640,6932,-2452,-981,526,-36
B,1,1213,1794,865,531,2583,1,1,1,1,1,0,16908,6928,-1608,-834,738,24
B,1,1203,1754,912,539,2559,1,1,1,1,1,0,17052,6520,-608,-862,690,175
B,1,1227,1761,842,604,2541,1,1,1,1,1,0,17124,6336,-684,-375,164,-42
B,1,1187,1781,880,561,2559,1,1,1,1,1,0,16872,6728,-960,-607,-144,-292
B,1,1188,1766,924,561,2559,1,1,1,1,1,0,16824,7024,-888,154,-194,105
B,1,1233,1793,843,560,2559,1,1,1,1,1,0,16556,7008,-1372,-710,-746,259
B,1,1200,1794,848,560,2559,1,1,1,1,1,0,17096,6536,-1444,153,5,418
B,1,1193,1789,854,562,2559,1,1,1,1,1,0,16956,6416,-1456,-858,-452,123
B,1,1204,1793,833,576,2559,1,1,1,1,1,0,17044,6528,-1168,-422,-89,34
B,1,1229,1785,837,587,2559,1,1,1,1,1,0,16840,6660,-1056,-684,-445,-203
B,1,1183,1781,864,545,2607,1,1,1,1,1,0,16816,6740,-1052,-489,-416,4
B,1,1199,1765,881,558,2559,1,1,1,1,1,0,16960,6632,-1348,-233,-411,-87
B,1,1203,1758,883,566,2559,1,1,1,1,1,0,16888,6820,-1332,-222,-503,69
B,1,1187,1791,875,558,2559,1,1,1,1,1,0,16608,6936,-1680,-381,-433,92
B,1,1220,1771,899,543,2559,1,1,1,1,1,0,16952,7096,-1772,-659,-98,212
B,1,1207,1775,878,576,2559,1,1,1,1,1,0,16892,6800,-1668,-611,118,334
B,1,1201,1789,866,576,2559,1,1,1,1,1,0,17120,6872,-1340,-971,389,346
B,1,1199,1777,881,527,2601,1,1,1,1,1,0,16772,6464,-728,-783,-306,716
B,1,1213,1756,880,574,2547,1,1,1,1,1,0,17012,6384,-1148,-554,185,414
B,1,1241,1776,869,565,2546,1,1,1,1,1,0,16740,6500,-972,-1005,-301,37
B,1,1201,1759,878,566,2559,1,1,1,1,1,0,16972,6424,-1040,86,152,-42
B,1,1215,1759,912,549,2555,1,1,1,1,1,0,16904,6848,568,-999,-1005,-214
B,1,1190,1793,886,547,2559,1,1,1,1,1,0,17128,6816,-1472,215,-5,-64
B,1,1187,1807,835,566,2581,1,1,1,1,1,0,16796,6828,-1300,-899,-322,-187
B,1,1188,1776,905,531,2559,1,1,1,1,1,0,16840,7008,-1000,-385,-185,100
B,1,1229,1786,866,561,2550,1,1,1,1,1,0,16816,6604,-1144,-492,-236,95
B,1,1197,1779,866,585,2559,1,1,1,1,1,0,16732,6776,-1324,-560,-191,-52
B,1,1206,1773,896,555,2553,1,1,1,1,1,0,16904,6948,-1128,-692,25,474
B,1,1210,1781,866,560,2582,1,1,1,1,1,0,16824,6788,-1076,-1332,-255,272
B,1,1219,1787,827,561,2559,1,1,1,1,1,0,17164,6840,-844,-660,-312,514
B,1,1183,1807,867,559,2559,1,1,1,1,1,0,16984,6444,-1448,-594,-257,141
B,1,1175,1772,921,545,2593,1,1,1,1,1,0,16996,6428,-1288,-223,-54,278
B,1,1191,1776,907,550,2559,1,1,1,1,1,0,16880,6684,-1148,-569,143,-110
B,1,1206,1780,848,571,2559,1,1,1,1,1,0,17104,6796,432,-374,-300,88
B,1,1185,1798,863,550,2559,1,1,1,1,1,0,16792,6736,-860,-124,-415,-145
B,1,1197,1775,871,560,2551,1,1,1,1,1,0,17080,6316,-1384,-530,-456,-113
B,1,1183,1791,845,550,2555,1,1,1,1,1,0,16736,7136,-1396,-595,-163,-275
B,1,1162,1805,858,570,2559,1,1,1,1,1,0,17188,6568,-1220,-440,-539,9
B,1,1219,1794,883,547,2559,1,1,1,1,1,0,16700,7184,-1572,-714,177,177
B,1,1187,1787,854,546,2559,1,1,1,1,1,0,17168,6356,-1128,-553,-115,180
B,1,1182,1807,848,566,2559,1,1,1,1,1,0,16732,6688,-980,-942,-137,181
B,1,1173,1797,854,562,2557,1,1,1,1,1,0,17112,6496,-968,-609,-70,29
B,1,1213,1776,847,570,2559,1,1,1,1,1,0,16932,6672,-1024,-921,-363,-12
B,1,1200,1798,844,593,2550,1,1,1,1,1,0,17132,6792,-952,-279,-39,-23
B,1,1195,1789,878,576,2591,1,1,1,1,1,0,16752,7036,-1080,-762,-498,96
B,1,1191,1782,847,571,2559,1,1,1,1,1,0,16932,6656,-1276,-363,22,180
B,1,1223,1775,885,546,2592,1,1,1,1,1,0,16840,6588,-1056,-743,-212,90
B,1,1193,1808,845,551,2595,1,1,1,1,1,0,16812,6620,-1256,-732,-52,-3
B,1,1179,1782,881,546,2554,1,1,1,1,1,0,16908,6468,-932,-428,-127,-117
B,1,1227,1775,847,574,2554,1,1,1,1,1,0,16812,7216,-908,-804,-218,34
B,1,1185,1811,842,561,2596,1,1,1,1,1,0,16988,6968,-800,-227,-288,129
B,1,1168,1781,882,545,2594,1,1,1,1,1,0,16860,7112,-1512,-1015,-370,219
B,1,1191,1791,870,560,2559,1,1,1,1,1,0,16896,6636,-1036,-175,-88,152
B,1,1195,1791,894,555,2558,1,1,1,1,1,0,16876,6656,-1072,-714,-117,196
B,1,1183,1802,861,545,2583,1,1,1,1,1,0,16984,6464,-1072,-592,-146,-9
B,1,1196,1777,889,541,2559,1,1,1,1,1,0,16672,6916,-1084,-682,-193,-11
B,1,1221,1782,848,543,2588,1,1,1,1,1,0,16848,7072,-900,-414,-57,103
B,1,1213,1806,835,554,2583,1,1,1,1,1,0,16780,6920,-928,-835,-583,273
B,1,1177,1791,880,556,2559,1,1,1,1,1,0,17060,6768,-1000,-164,64,189
B,1,1206,1773,880,555,2559,1,1,1,1,1,0,16820,6656,-980,-847,-458,90
B,1,1168,1809,819,560,2591,1,1,1,1,1,0,16856,6540,-1012,-306,109,37
B,1,1190,1779,863,550,2591,1,1,1,1,1,0,16680,6764,-804,-804,-509,-112
B,1,1191,1775,894,567,2559,1,1,1,1,1,0,16772,7024,-804,-373,-122,-115
B,1,1200,1808,859,581,2559,1,1,1,1,1,0,16816,6988,-788,-524,-661,86
B,1,1182,1808,837,560,2559,1,1,1,1,1,0,16884,7140,-1120,-493,-164,296
B,1,1200,1766,891,560,2559,1,1,1,1,1,0,17160,6660,-1084,-807,-414,216
B,1,1185,1785,847,592,2557,1,1,1,1,1,0,16852,6812,-1084,-432,59,122
B,1,1183,1776,875,559,2549,1,1,1,1,1,0,17128,6636,-756,-633,-329,55
B,1,1186,1783,877,564,2551,1,1,1,1,1,0,16748,7068,-984,-495,-180,96
B,1,1232,1792,859,557,2559,1,1,1,1,1,0,16756,6772,-1152,-550,-377,125
B,1,1178,1807,838,571,2559,1,1,1,1,1,0,16628,7008,-1036,-580,-50,173
C,1,529,762,573,402,2582,0,1,1,1,1,0,15960,5260,-6908,-1416,1,-155
C,1,537,763,541,404,2559,0,1,1,1,1,0,16208,4760,-6584,-794,-490,286
C,1,509,767,555,399,2559,0,1,1,1,1,0,16040,5264,-6960,-1283,121,405
C,1,499,757,575,377,2581,0,1,1,1,1,0,16412,4716,-6552,-1081,126,402
C,1,547,739,558,413,2542,0,1,1,1,1,0,16300,4624,-6724,-1796,400,704
C,1,511,763,581,390,2591,0,1,1,1,1,0,16448,4264,-6352,-527,441,236
C,1,540,767,577,367,2588,0,1,1,1,1,0,16448,4412,-5924,-1183,484,90
C,1,525,768,563,410,2559,0,1,1,1,1,0,16444,5072,-5420,86,-87,32
C,1,525,779,566,413,2557,0,1,1,1,1,0,16384,4540,-6024,-623,-582,401
C,1,511,762,592,397,2559,0,1,1,1,1,0,16208,4644,-6488,-588,-206,110
C,1,544,778,577,395,2559,0,1,1,1,1,0,16552,4452,-6180,-721,-269,221
C,1,511,752,560,412,2559,0,1,1,1,1,0,16432,4432,-6064,-410,-176,-107
C,1,537,768,560,400,2587,0,1,1,1,1,0,16580,4832,-5896,-878,-237,12
C,1,545,756,583,394,2555,0,1,1,1,1,0,16624,5108,-6132,-656,-698,130
C,1,524,755,576,398,2553,0,1,1,1,1,0,16100,4332,-6696,-237,-84,281
C,1,527,786,561,423,2559,0,1,1,1,1,0,16356,4284,-6528,-531,-938,54
C,1,511,768,579,391,2586,0,1,1,1,1,0,16360,4280,-6532,-411,233,-103
C,1,531,784,560,417,2555,0,1,1,1,1,0,16564,4764,-6336,-172,-702,-52
C,1,529,739,553,394,2547,0,1,1,1,1,0,16360,5104,-6516,-710,-145,171
C,1,511,765,558,399,2559,0,1,1,1,1,0,16352,4424,-6552,-256,-816,299
C,1,511,752,560,389,2559,0,1,1,1,1,0,16356,4652,-6512,-463,468,201
C,1,530,767,541,408,2556,0,1,1,1,1,0,16220,4424,-5580,-384,-761,436
C,1,496,783,543,385,2587,0,1,1,1,1,0,16512,4456,-6184,-452,112,132
C,1,511,754,560,414,2559,0,1,1,1,1,0,16240,4592,-6064,-572,-478,62
C,1,557,728,576,411,2546,0,1,1,1,1,0,16468,4464,-6392,-317,-335,43
C,1,511,790,566,402,2559,0,1,1,1,1,0,16496,4400,-6200,-459,-944,301
C,1,502,767,582,391,2559,0,1,1,1,1,0,16284,4476,-6696,-423,278,96
C,1,526,761,575,400,2544,0,1,1,1,1,0,16092,4584,-6324,-519,-488,43
C,1,559,749,581,397,2549,0,1,1,1,1,0,16452,4624,-6156,-623,-50,41
C,1,546,771,535,419,2559,0,1,1,1,1,0,16048,4448,-6496,-467,-412,162
C,1,552,766,571,391,2559,0,1,1,1,1,0,16244,4592,-6520,-395,-350,156
C,1,559,757,560,426,2542,0,1,1,1,1,0,16160,4384,-6712,-716,-150,182
C,1,541,789,566,443,2546,0,1,1,1,1,0,16424,4380,-6596,-205,-66,74
C,1,534,758,560,394,2590,0,1,1,1,1,0,16284,4608,-6436,-777,-133,61
C,1,541,771,534,427,2556,0,1,1,1,1,0,16152,4560,-6244,-412,-135,124
C,1,529,753,560,426,2559,0,1,1,1,1,0,16124,4464,-6532,-350,-411,43
C,1,511,773,564,400,2551,0,1,1,1,1,0,16220,4544,-6604,-435,-93,98
C,1,535,753,575,389,2593,0,1,1,1,1,0,16316,4304,-6552,-628,8,48
C,1,544,758,525,432,2534,0,1,1,1,1,0,16404,4672,-6296,-355,-143,120
C,1,502,762,563,424,2545,0,1,1,1,1,0,16428,4864,-6152,-663,-131,310
C,1,528,764,560,416,2555,0,1,1,1,1,0,16432,4048,-6396,-443,-471,137
C,1,533,755,565,395,2557,0,1,1,1,1,0,16256,4372,-6500,-506,-301,32
C,1,501,784,546,411,2544,0,1,1,1,1,0,16180,4584,-6512,-368,-410,17
C,1,484,781,559,427,2590,0,1,1,1,1,0,16192,4628,-6648,-625,-69,77
C,1,500,733,576,421,2559,0,1,1,1,1,0,16332,4800,-6248,-541,-198,323
C,1,560,758,569,400,2550,0,1,1,1,1,0,16320,4340,-6620,-499,-171,149
C,1,528,772,538,386,2590,0,1,1,1,1,0,16764,4052,-6648,-684,-182,270
C,1,496,739,599,403,2559,0,1,1,1,1,0,16344,4572,-6760,-255,-379,31
C,1,511,750,559,422,2559,0,1,1,1,1,0,16424,4504,-6552,-622,-243,210
C,1,510,785,511,414,2559,0,1,1,1,1,0,16304,4204,-6692,-441,-88,79
C,1,493,769,572,395,2559,0,1,1,1,1,0,16508,4784,-6436,-597,144,118
C,1,496,780,543,432,2545,0,1,1,1,1,0,16448,4412,-6392,-588,30,119
C,1,511,769,585,431,2559,0,1,1,1,1,0,16464,4332,-6320,-624,-128,91
C,1,539,763,553,391,2588,0,1,1,1,1,0,16536,4360,-6160,-468,-26,54
C,1,537,764,575,407,2531,0,1,1,1,1,0,16492,4223,-8225,-8225,-8225,-8225
C,1,528,754,560,428,2559,0,1,1,1,1,0,16344,4692,-6384,-610,-130,132
C,1,511,789,539,402,2559,0,1,1,1,1,0,16352,3924,-6104,-82,-837,274
C,1,549,735,572,390,2583,0,1,1,1,1,0,16352,4636,-6532,-872,149,115
C,1,528,729,581,407,2549,0,1,1,1,1,0,16272,4008,-6452,-684,-290,-186
C,1,544,767,559,423,2546,0,1,1,1,1,0,16540,4872,-5996,-343,-70,18
C,1,508,762,564,386,2593,0,1,1,1,1,0,16300,4960,-6400,-774,-286,140
C,1,544,751,551,448,2523,0,1,1,1,1,0,16452,4372,-6396,-161,-419,218
C,1,528,752,586,395,2588,0,1,1,1,1,0,16376,4436,-6600,-415,9,246
C,1,501,757,545,423,2547,0,1,1,1,1,0,16788,3776,-7172,-924,221,337
C,1,532,751,569,400,2539,0,1,1,1,1,0,16264,4508,-6036,-535,69,189
C,1,543,749,560,432,2551,0,1,1,1,1,0,16684,4272,-5840,-451,-772,285
C,1,497,769,589,390,2559,0,1,1,1,1,0,16412,4396,-6488,-49,15,-75
C,1,545,729,588,404,2559,0,1,1,1,1,0,16420,4508,-6172,-826,-305,45
C,1,531,771,555,406,2581,0,1,1,1,1,0,16360,4552,-6408,-531,77,-17
C,1,511,774,557,398,2559,0,1,1,1,1,0,16268,4640,-6292,-752,-134,351
C,1,496,758,592,401,2589,0,1,1,1,1,0,16408,4328,-6192,-451,66,304
C,1,526,737,611,386,2559,0,1,1,1,1,0,16460,4296,-6072,-667,-51,380
C,1,496,767,540,409,2585,0,1,1,1,1,0,16460,4168,-6072,-515,-209,174
C,1,494,769,569,404,2549,0,1,1,1,1,0,16640,4280,-5692,-492,81,88
C,1,511,742,535,384,2545,0,1,1,1,1,0,16460,4508,-6196,-730,-589,125
C,1,546,738,563,456,2525,0,1,1,1,1,0,16532,4500,-6112,-272,-50,49
C,1,496,783,569,423,2559,0,1,1,1,1,0,16416,4448,-6228,-1004,-236,231
C,1,497,773,558,384,2559,0,1,1,1,1,0,16384,4580,-5980,-175,29,179
C,1,558,767,583,430,2544,0,1,1,1,1,0,16332,4316,-6192,-929,-31,365
C,1,528,752,553,409,2550,0,1,1,1,1,0,16600,4360,-5980,-104,-342,156
C,1,522,749,566,415,2553,0,1,1,1,1,0,16588,4284,-6288,-605,-146,175
C,1,548,736,576,388,2559,0,1,1,1,1,0,16620,4360,-6016,-598,-315,93
C,1,529,761,539,434,2559,0,1,1,1,1,0,16480,4352,-6084,-445,-146,182
C,1,493,755,542,402,2601,0,1,1,1,1,0,16420,4312,-6268,-419,-340,116
C,1,522,749,582,390,2582,0,1,1,1,1,0,16428,4172,-6228,-582,-71,178
C,1,538,752,570,413,2590,0,1,1,1,1,0,16472,4512,-6088,-551,-300,150
C,1,495,785,528,411,2587,0,1,1,1,1,0,16644,4480,-5960,-398,-130,148
C,1,534,765,545,393,2606,0,1,1,1,1,0,16632,4156,-6112,-561,-272,206
C,1,524,751,548,400,2556,0,1,1,1,1,0,16696,4760,-5904,-758,109,197
C,1,528,761,541,421,2559,0,1,1,1,1,0,16500,4320,-6012,-503,-309,190
C,1,511,767,549,413,2559,0,1,1,1,1,0,16552,4140,-6072,-739,67,188
C,1,511,755,557,370,2559,0,1,1,1,1,0,16432,4516,-6236,-219,-265,83
C,1,510,759,551,400,2559,0,1,1,1,1,0,16448,4372,-6140,-646,-9,232
C,1,511,749,578,393,2559,0,1,1,1,1,0,16516,4244,-6044,-872,-502,176
C,1,504,769,559,391,2559,0,1,1,1,1,0,16520,4220,-6140,-699,-267,22
C,1,511,738,595,407,2551,0,1,1,1,1,0,16596,4276,-5784,-1120,-528,29
C,1,525,769,506,439,2557,0,1,1,1,1,0,16728,4440,-5900,-766,41,-40
C,1,487,742,575,385,2582,0,1,1,1,1,0,16676,4412,-5684,-442,-414,-42
C,1,565,742,578,400,2559,0,1,1,1,1,0,16668,4628,-5976,-36,-301,27
C,1,493,755,505,411,2553,0,1,1,1,1,0,16492,4356,-5856,-734,-426,323
C,1,511,759,559,395,2559,0,1,1,1,1,0,16588,4356,-6164,-422,-71,153
C,1,509,741,609,373,2583,0,1,1,1,1,0,16600,4256,-5968,-624,-51,254
C,1,525,763,574,383,2544,0,1,1,1,1,0,16712,4240,-5968,-476,-118,145
C,1,510,759,548,400,2559,0,1,1,1,1,0,16668,4496,-5892,-511,-39,86
C,1,471,750,584,383,2559,0,1,1,1,1,0,16556,4428,-6028,-342,-264,228
C,1,543,780,551,400,2559,0,1,1,1,1,0,16512,4016,-6208,-659,-241,168
C,1,534,758,535,438,2559,0,1,1,1,1,0,16672,4236,-5740,-617,-160,33
C,1,500,752,548,389,2549,0,1,1,1,1,0,16476,4456,-5964,-501,-431,142
C,1,531,752,575,404,2555,0,1,1,1,1,0,16760,4436,-5888,-254,-217,119
C,1,507,772,553,433,2559,0,1,1,1,1,0,16476,4076,-6288,-959,-344,248
C,1,526,752,569,400,2559,0,1,1,1,1,0,16732,4428,-5984,-285,-196,109
C,1,511,726,599,389,2559,0,1,1,1,1,0,16484,3804,-5484,-250,-352,96
C,1,525,734,553,404,2549,0,1,1,1,1,0,16640,4148,-5748,-525,-262,158
C,1,525,756,560,400,2559,0,1,1,1,1,0,16432,4176,-6160,-448,-24,26
C,1,496,755,562,422,2551,0,1,1,1,1,0,16400,4240,-5804,-727,-362,160
C,1,534,731,549,407,2559,0,1,1,1,1,0,16712,4168,-6156,-525,-222,135
C,1,547,737,564,412,2557,0,1,1,1,1,0,16668,4420,-5976,-554,-508,83
C,1,497,757,536,375,2595,0,1,1,1,1,0,16656,4172,-5936,-197,-85,74
C,1,511,750,578,384,2559,0,1,1,1,1,0,16668,4296,-5944,-855,-188,42
C,1,562,736,562,393,2557,0,1,1,1,1,0,16576,4556,-5900,-542,-24,88
C,1,528,752,557,432,2559,0,1,1,1,1,0,16544,4136,-6164,-510,-385,148
C,1,498,757,578,401,2559,0,1,1,1,1,0,16504,4028,-5884,-332,-240,201
C,1,554,753,558,425,2546,0,1,1,1,1,0,16684,4236,-5724,-726,-315,28
C,1,529,769,551,401,2559,0,1,1,1,1,0,16564,4396,-5920,-312,-168,53
C,1,555,736,592,403,2559,0,1,1,1,1,0,16652,4076,-6012,-864,-552,82
C,1,501,777,553,403,2586,0,1,1,1,1,0,16616,4320,-5872,-217,92,-179
C,1,549,779,551,411,2549,0,1,1,1,1,0,16768,4560,-5572,-787,-212,160
C,1,511,746,556,388,2559,0,1,1,1,1,0,16528,4460,-5740,-158,-243,110
C,1,531,771,528,423,2559,0,1,1,1,1,0,16484,4236,-5944,-480,-344,193
C,1,507,755,591,400,2553,0,1,1,1,1,0,16528,4360,-6096,-440,-126,79
C,1,539,763,525,432,2558,0,1,1,1,1,0,16624,4412,-5824,-633,-196,236
C,1,496,770,560,386,2559,0,1,1,1,1,0,16636,4032,-6116,-358,-234,139
C,1,510,758,574,416,2559,0,1,1,1,1,0,16636,4524,-5680,-752,-215,329
C,1,507,766,546,415,2587,0,1,1,1,1,0,16600,3960,-5600,-366,-345,127
C,1,523,762,576,416,2586,0,1,1,1,1,0,16436,4428,-5856,-349,-118,147
C,1,496,772,560,417,2579,0,1,1,1,1,0,16476,4340,-6000,-193,-317,147
C,1,528,757,560,421,2559,0,1,1,1,1,0,16656,4216,-5960,-658,-181,287
C,1,511,765,549,396,2559,0,1,1,1,1,0,16660,4336,-5776,-626,60,155
C,1,506,761,558,415,2550,0,1,1,1,1,0,16820,4488,-5680,-715,-542,296
C,1,527,754,565,419,2559,0,1,1,1,1,0,16484,4188,-5292,-124,82,194
C,1,555,763,511,411,2580,0,1,1,1,1,0,16576,4196,-5868,-525,-446,178
C,1,538,765,560,403,2557,0,1,1,1,1,0,16648,4164,-5888,-708,12,115
C,1,531,752,571,402,2554,0,1,1,1,1,0,15952,4872,-4176,471,-1160,132
C,1,511,759,560,408,2559,0,1,1,1,1,0,16592,4344,-6136,-789,143,61
C,1,506,761,541,414,2559,0,1,1,1,1,0,16848,4296,-5208,-543,-644,248
C,1,510,740,593,370,2559,0,1,1,1,1,0,16720,4256,-6364,-171,-324,145
C,1,510,750,563,407,2559,0,1,1,1,1,0,16668,4068,-5992,-815,465,206
C,1,528,761,546,407,2546,0,1,1,1,1,0,16740,3972,-5800,-381,-301,48
C,1,496,729,603,399,2542,0,1,1,1,1,0,16676,4516,-5404,-658,332,310
C,1,532,752,592,398,2534,0,1,1,1,1,0,16604,3628,-5828,-417,-1135,141
C,1,511,758,588,383,2559,0,1,1,1,1,0,16708,3880,-6264,-476,210,-69
C,1,511,761,565,369,2559,0,1,1,1,1,0,16688,4384,-5604,-647,-71,-96
C,1,511,746,553,398,2559,0,1,1,1,1,0,16624,4760,-5996,-452,-479,400
C,1,509,770,510,428,2550,0,1,1,1,1,0,16568,4104,-6060,-448,-450,339
C,1,505,778,582,390,2557,0,1,1,1,1,0,16652,4004,-5820,-593,-438,167
C,1,523,763,558,384,2559,0,1,1,1,1,0,16684,4124,-5588,-676,112,56
C,1,528,752,528,391,2556,0,1,1,1,1,0,16764,4188,-5524,-546,-725,181
C,1,497,783,511,418,2559,0,1,1,1,1,0,16716,4012,-6728,-398,-64,17
C,1,496,752,553,397,2559,0,1,1,1,1,0,16772,4456,-5348,-533,-1053,329
C,1,501,756,555,391,2559,0,1,1,1,1,0,16800,3924,-5992,-253,8,-11
C,1,555,759,533,415,2539,0,1,1,1,1,0,16620,4092,-5700,-764,-284,-29
C,1,510,753,560,384,2590,0,1,1,1,1,0,16836,4252,-5732,-420,-442,-95
C,1,522,764,528,418,2546,0,1,1,1,1,0,16580,4400,-5828,-630,-264,84
C,1,506,759,511,420,2559,0,1,1,1,1,0,16504,4272,-6136,-313,-666,124
C,1,511,743,566,385,2559,0,1,1,1,1,0,16520,4116,-6224,-783,-19,200
C,1,528,745,590,400,2559,0,1,1,1,1,0,16916,4204,-5720,-504,48,229
C,1,509,749,560,397,2559,0,1,1,1,1,0,16768,4128,-5692,-647,-383,104
C,1,511,734,561,397,2559,0,1,1,1,1,0,16636,4012,-5584,-787,-933,43
C,1,467,774,532,380,2559,0,1,1,1,1,0,16384,3820,-6388,-366,-600,-142
C,1,528,757,541,390,2556,0,1,1,1,1,0,16464,3968,-6204,-604,-499,-101
C,1,526,748,511,400,2554,0,1,1,1,1,0,16448,4380,-6100,-891,-388,-195
C,1,496,752,542,390,2559,0,1,1,1,1,0,16672,4376,-5828,-708,-486,-55
C,1,524,735,586,393,2559,0,1,1,1,1,0,16864,4696,-5980,-614,-174,-57
C,1,511,742,571,395,2558,0,1,1,1,1,0,16664,4628,-5852,-566,-790,157
C,1,478,784,545,393,2559,0,1,1,1,1,0,16468,4412,-6644,-490,-96,121
C,1,487,757,565,370,2586,0,1,1,1,1,0,16520,4500,-6112,-642,-325,176
C,1,543,733,570,400,2553,0,1,1,1,1,0,16492,4388,-6200,-336,-177,254
C,1,539,748,559,402,2549,0,1,1,1,1,0,16492,4116,-6240,-586,-87,168
C,1,499,780,529,379,2597,0,1,1,1,1,0,16416,4400,-6200,-367,-83,182
C,1,507,747,575,383,2554,0,1,1,1,1,0,16512,4540,-6124,-214,111,163
C,1,491,750,569,384,2544,0,1,1,1,1,0,16692,4252,-6392,-1177,147,336
C,1,526,747,551,375,2559,0,1,1,1,1,0,16696,4236,-5980,-372,-96,162
C,1,510,724,576,378,2539,0,1,1,1,1,0,16636,4324,-5816,-690,-97,279
C,1,511,733,576,372,2586,0,1,1,1,1,0,16716,4288,-5744,-308,-360,98
C,1,497,751,560,417,2559,0,1,1,1,1,0,16444,4176,-6076,-669,-268,203
C,1,491,754,533,387,2591,0,1,1,1,1,0,16672,4224,-5740,-357,-353,18
C,1,507,746,554,398,2559,0,1,1,1,1,0,16708,4296,-6148,-604,-227,104
C,1,559,758,527,381,2557,0,1,1,1,1,0,16720,3996,-5936,-385,-211,-29
C,1,511,751,537,361,2594,0,1,1,1,1,0,16644,4336,-6180,-716,-313,-74
C,1,527,724,577,368,2585,0,1,1,1,1,0,16676,4592,-5488,-162,-307,-98
C,1,496,746,527,417,2556,0,1,1,1,1,0,16508,3932,-6076,-573,-429,82
C,1,482,755,529,379,2589,0,1,1,1,1,0,16468,4456,-6212,-429,-146,119
C,1,506,727,588,363,2559,0,1,1,1,1,0,16480,4260,-5968,-721,-371,179
C,1,498,753,567,413,2535,0,1,1,1,1,0,16440,4296,-6072,-179,-236,70
C,1,495,748,571,387,2549,0,1,1,1,1,0,16728,4328,-6072,-492,-215,87
C,1,493,735,551,391,2559,0,1,1,1,1,0,16524,4388,-6028,-440,-89,102
C,1,508,752,534,387,2585,0,1,1,1,1,0,16688,4284,-6136,-767,-139,138
C,1,550,742,533,419,2557,0,1,1,1,1,0,16628,4256,-6100,-412,-198,206
C,1,511,739,528,382,2610,0,1,1,1,1,0,16664,4168,-6068,-519,-289,136
C,1,497,724,593,383,2559,0,1,1,1,1,0,16752,4268,-5788,-498,-398,162
D,1,437,736,534,754,2555,1,0,1,1,1,1,17396,2852,-4520,-153,-175,-32
D,1,461,733,539,774,2541,1,0,1,1,1,1,17404,3772,-4020,-1300,-1,406
D,1,464,722,531,762,2557,1,0,1,1,1,1,17456,3208,-4524,-717,-162,330
D,1,442,751,535,770,2550,1,0,1,1,1,1,17624,3256,-3984,-1021,324,326
D,1,465,741,549,747,2558,1,0,1,1,1,1,17244,3120,-4116,-590,-61,149
D,1,474,718,555,784,2533,1,0,1,1,1,1,17544,3424,-3728,-519,-263,72
D,1,473,722,541,759,2559,1,0,1,1,1,1,17564,3304,-3708,-766,-335,204
D,1,446,716,511,765,2559,1,0,1,1,1,1,17604,3236,-3664,-191,-355,-63
D,1,476,723,559,758,2559,1,0,1,1,1,1,17468,3396,-4084,-817,-485,52
D,1,467,747,528,779,2542,1,0,1,1,1,1,17452,3440,-4012,-321,-231,-28
D,1,457,721,539,763,2557,1,0,1,1,1,1,17348,3508,-4016,-702,28,134
D,1,479,734,525,793,2530,1,0,1,1,1,1,17480,3528,-3580,-175,-576,109
D,1,485,703,549,758,2551,1,0,1,1,1,1,17332,3684,-4248,-826,34,371
D,1,443,751,496,785,2544,1,0,1,1,1,1,17624,3272,-4012,-360,-505,319
D,1,464,729,562,759,2544,1,0,1,1,1,1,17548,3340,-3908,-613,744,66
D,1,452,731,548,763,2545,1,0,1,1,1,1,17472,3448,-3556,-516,-1022,211
D,1,471,729,538,768,2558,1,0,1,1,1,1,17508,3340,-3780,-429,62,12
D,1,448,747,570,747,2559,1,0,1,1,1,1,17448,3372,-3672,-445,-659,230
D,1,437,752,529,774,2538,1,0,1,1,1,1,17432,3336,-4176,-827,709,230
D,1,465,726,510,791,2559,1,0,1,1,1,1,17524,3236,-3788,-132,-626,255
D,1,446,734,542,770,2559,1,0,1,1,1,1,17676,3448,-3776,-833,310,231
D,1,442,725,544,771,2547,1,0,1,1,1,1,17800,3236,-3704,-420,-863,185
D,1,487,717,547,763,2551,1,0,1,1,1,1,17600,3084,-3660,-485,-117,148
D,1,449,719,544,769,2549,1,0,1,1,1,1,17640,3104,-3732,-367,-1098,88
D,1,464,733,541,770,2534,1,0,1,1,1,1,17472,3412,-3968,-415,-176,21
D,1,461,717,565,773,2541,1,0,1,1,1,1,17436,3264,-4092,-327,-795,108
D,1,437,720,550,759,2557,1,0,1,1,1,1,17588,3584,-3936,-406,91,189
D,1,427,740,532,785,2544,1,0,1,1,1,1,17896,2612,-4444,-913,-1092,160
D,1,442,719,555,784,2534,1,0,1,1,1,1,17732,3308,-3680,-473,701,124
D,1,479,746,501,790,2543,1,0,1,1,1,1,17432,3104,-4280,-656,-743,-29
D,1,458,741,527,772,2557,1,0,1,1,1,1,17548,3620,-3664,-416,334,108
D,1,460,739,539,756,2559,1,0,1,1,1,1,17200,3232,-3852,-633,-529,136
D,1,471,723,537,763,2551,1,0,1,1,1,1,17656,3308,-3864,-441,225,208
D,1,483,746,496,812,2546,1,0,1,1,1,1,17624,2928,-3916,-434,-567,65
D,1,440,727,562,743,2559,1,0,1,1,1,1,17632,3436,-4068,-675,404,39
D,1,465,726,551,796,2541,1,0,1,1,1,1,17508,3272,-4036,-514,-262,46
D,1,491,727,527,761,2558,1,0,1,1,1,1,17564,3224,-3736,-178,-160,62
D,1,469,741,511,795,2549,1,0,1,1,1,1,17292,3356,-3924,-705,124,229
D,1,438,743,546,755,2559,1,0,1,1,1,1,17424,3284,-3936,-543,14,211
D,1,473,719,530,799,2519,1,0,1,1,1,1,17548,3272,-3708,-720,322,232
D,1,459,715,528,768,2583,1,0,1,1,1,1,17744,3072,-3348,-444,-348,54
D,1,421,732,535,766,2549,1,0,1,1,1,1,17708,3228,-3576,-639,-31,-24
D,1,431,746,538,767,2559,1,0,1,1,1,1,17736,3436,-3628,-183,-546,-57
D,1,462,707,528,791,2549,1,0,1,1,1,1,17600,3160,-4012,-683,-171,5
D,1,429,747,538,757,2557,1,0,1,1,1,1,17512,3380,-3720,-430,-569,216
D,1,460,752,528,795,2543,1,0,1,1,1,1,17356,3244,-3956,-728,-16,215
D,1,434,752,528,773,2559,1,0,1,1,1,1,17556,3092,-3972,-466,-513,-25
D,1,448,753,511,783,2559,1,0,1,1,1,1,17304,3584,-3824,-733,-189,120
D,1,431,731,577,758,2537,1,0,1,1,1,1,17440,3428,-3996,-557,-79,118
D,1,474,722,551,775,2544,1,0,1,1,1,1,17800,3312,-3516,-463,-210,146
D,1,457,752,511,786,2544,1,0,1,1,1,1,17660,3060,-3728,-698,-183,118
D,1,431,739,535,763,2538,1,0,1,1,1,1,17748,3140,-3784,-497,-564,7
D,1,437,726,555,759,2555,1,0,1,1,1,1,17352,3392,-3900,-407,-215,-20
D,1,448,754,511,790,2538,1,0,1,1,1,1,17528,3456,-3840,-636,-713,132
D,1,425,731,554,751,2559,1,0,1,1,1,1,17428,3220,-4020,-540,-174,164
D,1,435,731,576,759,2544,1,0,1,1,1,1,17708,2984,-3584,-536,-518,113
D,1,448,742,562,765,2559,1,0,1,1,1,1,17456,3396,-4040,-716,77,59
D,1,450,759,565,784,2555,1,0,1,1,1,1,17856,3308,-3720,-231,-711,76
D,1,442,739,550,766,2550,1,0,1,1,1,1,17308,3308,-4252,-753,-351,204
D,1,463,714,554,791,2544,1,0,1,1,1,1,17608,3244,-4064,-177,-330,157
D,1,449,731,508,773,2545,1,0,1,1,1,1,17508,3468,-3828,-516,-144,171
D,1,453,709,576,741,2546,1,0,1,1,1,1,17512,3448,-3824,-369,-120,279
D,1,435,732,538,779,2547,1,0,1,1,1,1,17608,3088,-4008,-568,-215,212
D,1,447,752,522,795,2529,1,0,1,1,1,1,17708,3032,-3816,-124,-98,66
D,1,446,730,529,774,2544,1,0,1,1,1,1,17512,3256,-4188,-800,-148,16
D,1,448,719,560,757,2540,1,0,1,1,1,1,17556,3372,-3780,-215,-262,-2
D,1,474,710,532,754,2555,1,0,1,1,1,1,17304,3284,-4072,-680,-265,170
D,1,463,752,505,775,2539,1,0,1,1,1,1,17728,3120,-3896,-139,71,26
D,1,435,720,559,750,2545,1,0,1,1,1,1,17160,3268,-4108,-374,332,56
D,1,465,720,543,773,2541,1,0,1,1,1,1,17900,3584,-3580,-397,-109,-3
D,1,431,758,526,763,2559,1,0,1,1,1,1,17396,3224,-3632,-221,137,171
D,1,431,742,553,750,2559,1,0,1,1,1,1,17672,3208,-3712,-456,-439,307
D,1,439,720,527,778,2525,1,0,1,1,1,1,17340,3144,-4032,-493,-126,229
D,1,456,750,542,763,2538,1,0,1,1,1,1,17612,2860,-3904,-192,-478,5
D,1,432,743,541,760,2558,1,0,1,1,1,1,17484,3240,-4024,-822,-143,0
D,1,448,726,551,742,2551,1,0,1,1,1,1,17744,3364,-3740,-358,-728,71
D,1,467,752,551,742,2535,1,0,1,1,1,1,17548,3200,-3668,-566,41,139
D,1,477,723,511,779,2544,1,0,1,1,1,1,17596,3108,-3640,-365,-512,19
D,1,425,739,557,752,2555,1,0,1,1,1,1,17640,3372,-3660,-634,62,4
D,1,449,710,549,756,2550,1,0,1,1,1,1,17480,3428,-3768,-508,-763,140
D,1,457,725,553,784,2547,1,0,1,1,1,1,17492,3288,-3920,-353,-122,226
D,1,434,739,557,745,2559,1,0,1,1,1,1,17440,2996,-3988,-706,-736,232
D,1,438,722,541,762,2534,1,0,1,1,1,1,17648,3152,-3872,-416,71,49
D,1,468,741,549,763,2534,1,0,1,1,1,1,17632,3212,-3544,-457,-597,65
D,1,425,737,528,752,2559,1,0,1,1,1,1,17760,3492,-3628,-492,-104,113
D,1,415,745,555,748,2532,1,0,1,1,1,1,17460,3156,-4216,-160,-664,227
D,1,455,707,551,763,2551,1,0,1,1,1,1,17624,3200,-3932,-725,-191,522
D,1,438,733,529,752,2559,1,0,1,1,1,1,17344,2708,-4364,-227,-11,-4
D,1,439,743,548,741,2559,1,0,1,1,1,1,17468,3216,-3740,-615,-472,216
D,1,451,720,535,768,2545,1,0,1,1,1,1,17756,3320,-3668,-288,-90,112
D,1,474,726,528,758,2559,1,0,1,1,1,1,17688,2880,-3872,-689,-714,130
D,1,423,741,541,753,2558,1,0,1,1,1,1,17524,3324,-4192,-455,-105,61
D,1,449,742,547,751,2559,1,0,1,1,1,1,17476,3028,-4192,-457,-699,133
D,1,443,726,554,767,2533,1,0,1,1,1,1,17340,3164,-4160,-747,836,38
D,1,453,707,571,767,2553,1,0,1,1,1,1,17316,3116,-3804,-454,-556,180
D,1,443,727,561,750,2547,1,0,1,1,1,1,17720,3268,-3776,-885,606,109
D,1,481,709,560,750,2551,1,0,1,1,1,1,17344,3020,-3916,-712,-1083,268
D,1,461,711,528,782,2539,1,0,1,1,1,1,18000,3336,-3616,-110,-19,8
D,1,449,723,551,753,2559,1,0,1,1,1,1,17672,3064,-3848,-681,-788,72
D,1,460,709,567,756,2550,1,0,1,1,1,1,17852,3320,-3656,-331,-13,66
D,1,431,725,531,789,2544,1,0,1,1,1,1,17304,2980,-3944,-680,-568,84
D,1,480,711,539,757,2559,1,0,1,1,1,1,17640,3368,-3560,-210,-401,106
D,1,450,740,533,748,2559,1,0,1,1,1,1,17452,3088,-4056,-818,-94,111
D,1,464,720,529,769,2546,1,0,1,1,1,1,17688,3144,-3824,-343,-702,0
D,1,459,730,496,753,2558,1,0,1,1,1,1,17444,3348,-4296,-736,-107,106
D,1,427,747,542,769,2525,1,0,1,1,1,1,17620,3336,-4020,-491,50,161
D,1,442,710,539,787,2559,1,0,1,1,1,1,17556,3188,-3768,-582,-356,213
D,1,479,738,495,785,2551,1,0,1,1,1,1,17508,3060,-3748,-446,-242,118
D,1,428,733,533,762,2549,1,0,1,1,1,1,17740,3172,-3964,-672,22,-31
D,1,462,720,554,756,2544,1,0,1,1,1,1,17320,3212,-3784,-472,-332,149
D,1,482,711,538,767,2525,1,0,1,1,1,1,17544,3188,-4096,-549,-403,70
D,1,418,756,534,752,2555,1,0,1,1,1,1,17512,3268,-3880,-524,213,35
D,1,433,711,562,780,2528,1,0,1,1,1,1,17620,3276,-3840,-673,-753,190
D,1,449,721,541,762,2551,1,0,1,1,1,1,17640,3220,-3700,-454,290,66
D,1,467,740,506,759,2559,1,0,1,1,1,1,17484,2996,-3692,-710,-681,112
D,1,472,747,533,759,2559,1,0,1,1,1,1,17496,3280,-3904,-269,73,12
D,1,479,709,531,787,2521,1,0,1,1,1,1,17632,3096,-3592,-765,-692,159
D,1,443,704,531,787,2541,1,0,1,1,1,1,17668,3124,-3892,-167,-160,11
D,1,454,720,544,752,2547,1,0,1,1,1,1,17664,3056,-4100,-746,-393,84
D,1,459,735,533,784,2538,1,0,1,1,1,1,17600,3384,-3992,-422,-33,123
D,1,477,721,554,767,2539,1,0,1,1,1,1,17244,3060,-4140,-1168,-643,290
D,1,437,723,560,742,2559,1,0,1,1,1,1,17780,2908,-3680,-15,-21,-14
D,1,446,736,549,735,2559,1,0,1,1,1,1,17352,3360,-4124,-1013,-759,229
D,1,464,719,551,779,2535,1,0,1,1,1,1,17564,3240,-4248,-194,-188,139
D,1,469,704,556,752,2554,1,0,1,1,1,1,17688,3068,-3820,-555,-167,202
D,1,464,751,567,755,2545,1,0,1,1,1,1,17816,2976,-3748,-505,-7,-102
D,1,461,745,527,768,2539,1,0,1,1,1,1,17404,3364,-3736,-736,-43,158
D,1,449,737,552,769,2530,1,0,1,1,1,1,17956,3460,-3964,-531,-172,232
D,1,439,738,511,762,2559,1,0,1,1,1,1,17420,3068,-4112,-796,91,167
D,1,449,732,535,759,2552,1,0,1,1,1,1,17584,3296,-3872,-323,-32,257
D,1,463,725,545,755,2544,1,0,1,1,1,1,17408,2868,-3732,-812,-389,251
D,1,435,746,511,766,2559,1,0,1,1,1,1,17816,3060,-3652,-303,-176,-96
D,1,435,731,555,758,2538,1,0,1,1,1,1,17792,3184,-3540,-779,-434,-15
D,1,466,706,559,756,2524,1,0,1,1,1,1,17576,3396,-3872,-440,-287,147
D,1,449,731,532,771,2557,1,0,1,1,1,1,17408,3040,-4056,-790,-100,280
D,1,430,742,547,749,2559,1,0,1,1,1,1,17528,3012,-3732,-250,-495,-5
D,1,464,745,507,768,2544,1,0,1,1,1,1,17480,3388,-3764,-642,-98,121
D,1,457,731,547,752,2539,1,0,1,1,1,1,17688,3004,-3412,-149,-666,-32
D,1,458,736,530,755,2557,1,0,1,1,1,1,17696,3076,-3732,-384,-871,163
D,1,439,746,523,754,2539,1,0,1,1,1,1,17624,3696,-3848,-221,-376,-66
D,1,448,745,531,761,2530,1,0,1,1,1,1,17752,3112,-4112,-262,-875,151
D,1,463,750,494,769,2559,1,0,1,1,1,1,17260,3376,-4436,-206,-272,43
D,1,453,742,529,745,2553,1,0,1,1,1,1,17528,3000,-4248,-302,-934,200
D,1,457,726,536,769,2544,1,0,1,1,1,1,17196,2852,-4692,-242,-255,130
D,1,452,746,528,774,2546,1,0,1,1,1,1,17272,2620,-4728,-524,-551,50
D,1,463,711,561,733,2553,1,0,1,1,1,1,17672,3732,-4016,-682,841,211
D,1,421,720,573,723,2559,1,0,1,1,1,1,17468,3032,-4304,-700,-786,266
D,1,449,738,552,753,2542,1,0,1,1,1,1,17696,3196,-4144,-25,101,147
D,1,415,765,501,759,2559,1,0,1,1,1,1,17404,2264,-4548,-1051,-900,846
D,1,432,742,529,731,2559,1,0,1,1,1,1,17532,3144,-4172,2,412,28
D,1,449,747,499,765,2547,1,0,1,1,1,1,17280,3408,-3960,-1221,431,24
D,1,448,717,544,769,2539,1,0,1,1,1,1,17792,2956,-3588,-458,98,22
D,1,439,737,561,734,2558,1,0,1,1,1,1,17632,3572,-3352,-512,-76,274
D,1,465,741,582,751,2534,1,0,1,1,1,1,17584,2908,-3936,-878,-257,536
D,1,478,722,545,723,2559,1,0,1,1,1,1,17672,2800,-3720,-166,17,184
D,1,464,720,530,725,2557,1,0,1,1,1,1,17772,2420,-3888,-766,-900,339
D,1,473,714,538,750,2545,1,0,1,1,1,1,17488,2396,-4496,-418,-345,-367
D,1,467,720,549,745,2549,1,0,1,1,1,1,17396,3336,-3916,-855,-19,-847
D,1,417,767,510,729,2559,1,0,1,1,1,1,17396,3756,-3732,-292,217,-66
D,1,457,720,557,707,2559,1,0,1,1,1,1,17420,2808,-4156,-847,-790,34
D,1,485,719,530,754,2527,1,0,1,1,1,1,17628,3564,-4272,-1007,-223,7
D,1,435,740,554,734,2559,1,0,1,1,1,1,17480,3568,-4008,-399,23,49
D,1,451,723,533,727,2555,1,0,1,1,1,1,17640,3540,-3656,-932,35,360
D,1,479,707,571,727,2547,1,0,1,1,1,1,17596,2544,-3788,-244,-283,394
D,1,479,737,527,723,2559,1,0,1,1,1,1,17452,2356,-4248,-914,-136,-80
D,1,445,734,544,717,2559,1,0,1,1,1,1,17604,3836,-3672,-671,-29,-449
D,1,458,733,560,739,2543,1,0,1,1,1,1,17640,3516,-3584,-397,-465,158
D,1,458,718,549,735,2544,1,0,1,1,1,1,17576,3564,-4040,-416,103,-230
D,1,452,756,507,743,2540,1,0,1,1,1,1,17668,2924,-4028,-755,-623,330
D,1,464,720,528,716,2558,1,0,1,1,1,1,17472,3568,-3812,4,236,154
D,1,436,704,563,720,2549,1,0,1,1,1,1,17512,2900,-3976,-1081,-1127,394
D,1,477,737,509,726,2559,1,0,1,1,1,1,17452,3236,-3980,-50,884,-305
D,1,432,724,541,735,2539,1,0,1,1,1,1,17532,3268,-3704,-1070,-68,236
D,1,443,720,549,747,2519,1,0,1,1,1,1,17408,3168,-3760,-595,-327,89
D,1,482,719,542,718,2543,1,0,1,1,1,1,17760,3280,-3620,-764,-79,39
D,1,423,738,535,721,2559,1,0,1,1,1,1,17576,3480,-3556,-554,-412,124
D,1,454,751,560,717,2550,1,0,1,1,1,1,17656,2920,-4004,-739,-413,102
D,1,459,717,562,728,2533,1,0,1,1,1,1,17628,3144,-3780,-558,-187,-76
D,1,474,727,557,752,2550,1,0,1,1,1,1,17400,3368,-3984,-768,-184,-108
D,1,453,737,532,710,2559,1,0,1,1,1,1,17456,3712,-3608,-375,-347,66
D,1,492,719,546,742,2543,1,0,1,1,1,1,17640,3432,-3724,-481,-213,206
D,1,471,727,511,752,2559,1,0,1,1,1,1,17596,3428,-3696,-195,-552,208
D,1,445,735,533,732,2559,1,0,1,1,1,1,17404,3276,-3728,-472,-447,303
D,1,458,724,544,738,2549,1,0,1,1,1,1,17524,2948,-4320,-216,-810,90
D,1,480,703,557,741,2544,1,0,1,1,1,1,17404,3428,-3968,-588,-5,85
D,1,435,723,532,748,2549,1,0,1,1,1,1,17428,3416,-3980,-497,-401,185
D,1,462,734,534,725,2551,1,0,1,1,1,1,17592,3036,-4044,-316,27,64
D,1,454,726,541,730,2543,1,0,1,1,1,1,17672,3012,-3924,-855,-299,-181
D,1,449,726,554,739,2550,1,0,1,1,1,1,17684,3816,-3588,-312,-37,-226
D,1,449,720,555,724,2559,1,0,1,1,1,1,17328,3712,-3856,-532,-601,176
D,1,468,723,543,734,2531,1,0,1,1,1,1,17404,3452,-4100,-486,-377,129
D,1,454,751,505,729,2559,1,0,1,1,1,1,17328,3144,-4160,-567,-562,284
D,1,427,743,538,720,2559,1,0,1,1,1,1,17552,2948,-4220,-388,-246,-41
D,1,417,733,544,737,2537,1,0,1,1,1,1,17500,3388,-3924,-662,-110,-53
D,1,463,731,534,748,2525,1,0,1,1,1,1,17420,3504,-3860,-716,-265,-36
D,1,454,741,511,739,2546,1,0,1,1,1,1,17464,3784,-4040,-540,211,70
D,1,458,741,534,720,2549,1,0,1,1,1,1,17592,3468,-3980,-133,-328,79
D,1,469,716,546,739,2534,1,0,1,1,1,1,17580,3356,-4024,-456,122,157
D,1,460,746,503,741,2550,1,0,1,1,1,1,17324,3500,-3732,-798,-396,315
D,1,452,752,555,698,2547,1,0,1,1,1,1,17688,3084,-3844,-254,-43,81
E,1,430,729,503,241,2506,0,0,0,1,1,0,17804,3976,-748,-193,-101,32
E,1,401,751,493,245,2495,0,0,0,1,1,0,17740,3660,-1040,-863,28,-278
E,1,401,742,509,224,2511,0,0,0,1,1,0,17876,4316,-1152,-161,-33,-67
E,1,405,739,511,238,2501,0,0,0,1,1,0,17572,4196,-1244,-1082,-243,151
E,1,407,734,493,254,2499,0,0,0,1,1,0,17776,4016,-1464,417,-348,-105
E,1,417,750,496,240,2511,0,0,0,1,1,0,17972,4772,-1160,-1152,-359,10
E,1,398,741,526,233,2511,0,0,0,1,1,0,17840,4048,-1688,-265,-107,-35
E,1,419,733,500,238,2497,0,0,0,1,1,0,17876,3944,-1524,-776,14,-189
E,1,411,754,500,249,2499,0,0,0,1,1,0,17696,4244,-1140,-778,-188,-341
E,1,399,727,510,241,2498,0,0,0,1,1,0,17688,4216,-852,-373,-316,-179
E,1,400,725,533,229,2494,0,0,0,1,1,0,17660,4704,-1276,-717,-632,-157
E,1,396,751,511,235,2503,0,0,0,1,1,0,17864,4284,-1008,-326,-596,40
E,1,403,750,496,240,2512,0,0,0,1,1,0,17796,4400,-1428,-538,-455,3
E,1,405,745,511,240,2506,0,0,0,1,1,0,17804,4272,-1408,-546,-462,-92
E,1,406,734,528,233,2496,0,0,0,1,1,0,17572,4708,-1444,-453,-446,-28
E,1,390,727,507,242,2501,0,0,0,1,1,0,17576,4448,-1816,-598,-12,32
E,1,387,731,511,239,2497,0,0,0,1,1,0,17500,4548,-1660,-535,-149,151
E,1,416,718,509,246,2493,0,0,0,1,1,0,17648,4404,-1476,-474,194,215
E,1,406,745,524,230,2489,0,0,0,1,1,0,17796,4116,-1232,-863,120,214
E,1,381,763,500,240,2436,0,0,0,1,1,0,17720,4288,-1096,-664,-20,49
E,1,412,736,511,240,2490,0,0,0,1,1,0,17820,4488,-1160,-900,-24,134
E,1,400,743,498,246,2441,0,0,0,1,1,0,17760,4308,-1236,-390,-194,101
E,1,400,740,499,225,2416,0,0,0,1,1,0,17760,4336,-1264,-571,-74,185
E,1,407,741,503,241,2490,0,0,0,1,1,0,17672,4356,-1712,-571,-21,160
E,1,422,721,528,242,2256,0,0,0,1,1,0,17724,4168,-1160,-781,-132,209
E,1,384,749,524,226,2506,0,0,0,1,1,0,17628,4440,-1044,-613,-86,77
E,1,398,734,508,234,2511,0,0,0,1,1,0,17940,4376,-1356,-488,-105,205
E,1,400,741,528,240,2498,0,0,0,1,1,0,17628,4308,-1192,-553,-253,28
E,1,400,752,465,263,2412,0,0,0,1,1,0,17744,4236,-1152,-632,-381,47
E,1,417,727,528,223,2430,0,0,0,1,1,0,17712,4576,-1036,-480,-295,-106
E,1,400,722,533,226,2415,0,0,0,1,1,0,17600,4292,-1168,-571,-220,-41
E,1,429,731,501,249,2436,0,0,0,1,1,0,17568,4480,-1360,-618,-346,4
E,1,395,733,511,231,2499,0,0,0,1,1,0,17860,4472,-1180,-343,-194,86
E,1,409,732,499,227,2423,0,0,0,1,1,0,17856,4392,-1080,-1167,-499,185
E,1,394,731,539,223,2379,0,0,0,1,1,0,17772,4580,-1456,-337,-26,77
E,1,413,753,528,229,2456,0,0,0,1,1,0,17880,4408,-1188,-817,-238,135
E,1,397,733,510,240,2507,0,0,0,1,1,0,17788,4600,-984,-452,-20,86
E,1,399,721,529,228,2329,0,0,0,1,1,0,17644,4396,-1148,-771,-128,95
E,1,391,755,494,256,2384,0,0,0,1,1,0,17668,4632,-1116,-225,-82,103
E,1,395,742,499,223,2505,0,0,0,1,1,0,17824,4384,-792,-640,-186,231
E,1,387,733,536,223,2480,0,0,0,1,1,0,17776,4412,-1072,-259,-313,167
E,1,421,722,507,239,2496,0,0,0,1,1,0,17928,4452,-972,-613,-257,172
E,1,394,731,511,227,2368,0,0,0,1,1,0,17760,4080,-996,-500,-103,55
E,1,423,739,511,221,2512,0,0,0,1,1,0,17624,4604,-1084,-507,-181,-60
E,1,400,720,537,233,2497,0,0,0,1,1,0,17488,4484,-1264,-559,-405,51
E,1,413,751,491,240,2495,0,0,0,1,1,0,17748,4340,-956,-167,-75,68
E,1,393,741,497,222,2396,0,0,0,1,1,0,17644,4620,-1220,-1080,-237,33
E,1,389,732,539,218,2487,0,0,0,1,1,0,17824,4420,-1036,-211,0,90
E,1,423,744,506,240,2471,0,0,0,1,1,0,17792,4512,-912,-705,-147,127
E,1,389,746,496,240,2486,0,0,0,1,1,0,17760,4624,-924,-608,-325,189
E,1,400,748,502,245,2506,0,0,0,1,1,0,17608,4328,-1160,-476,77,119
E,1,396,735,511,239,2497,0,0,0,1,1,0,17652,4652,-1000,-560,-221,296
E,1,411,743,493,245,2503,0,0,0,1,1,0,17700,4460,-900,-622,-374,324
E,1,410,739,541,205,2512,0,0,0,1,1,0,17660,3988,-1056,-688,-226,52
E,1,417,716,544,220,2493,0,0,0,1,1,0,17792,4576,-1000,-414,-332,56
E,1,421,726,498,249,2498,0,0,0,1,1,0,17828,4184,-1236,-467,-158,-52
E,1,400,735,526,215,2512,0,0,0,1,1,0,17780,4420,-912,-292,-401,150
E,1,405,734,533,238,2502,0,0,0,1,1,0,17876,4348,-1184,-754,-237,11
E,1,411,723,510,240,2494,0,0,0,1,1,0,17684,4304,-960,-140,-259,42
E,1,407,751,487,243,2502,0,0,0,1,1,0,17692,4744,-1008,-880,-271,-2
E,1,423,724,525,225,2505,0,0,0,1,1,0,17828,4420,-972,-298,-372,55
E,1,403,732,526,238,2498,0,0,0,1,1,0,17640,4404,-1280,-675,-208,80
E,1,399,740,487,231,2513,0,0,0,1,1,0,17744,4576,-1024,-265,-403,154
E,1,395,740,497,239,2506,0,0,0,1,1,0,17776,4668,-1120,-979,-380,191
E,1,395,734,540,243,2501,0,0,0,1,1,0,17752,4084,-1064,-185,-168,24
E,1,399,725,496,227,2509,0,0,0,1,1,0,17536,4508,-1052,-709,-333,-16
E,1,395,745,528,229,2512,0,0,0,1,1,0,17712,4000,-896,-347,-285,-136
E,1,415,720,526,231,2495,0,0,0,1,1,0,17696,4668,-780,-402,-525,-183
E,1,409,743,497,242,2500,0,0,0,1,1,0,17436,4944,-1216,-640,-405,-324
E,1,425,723,526,230,2496,0,0,0,1,1,0,17728,4988,-1472,-513,-307,-19
E,1,406,733,511,225,2503,0,0,0,1,1,0,17592,4880,-1472,-649,-266,303
E,1,419,726,509,234,2510,0,0,0,1,1,0,17820,4368,-1560,-916,-3,392
E,1,417,733,497,237,2453,0,0,0,1,1,0,17700,4440,-852,-235,222,158
E,1,378,738,535,224,2474,0,0,0,1,1,0,17836,4520,-420,-944,-213,155
E,1,405,729,510,221,2469,0,0,0,1,1,0,17824,4500,-896,-126,-153,94
E,1,391,743,511,226,2483,0,0,0,1,1,0,17740,4744,-1316,-605,-460,84
E,1,389,734,505,228,2491,0,0,0,1,1,0,17728,4688,-1336,-338,-223,119
E,1,392,733,511,221,2485,0,0,0,1,1,0,17808,4548,-1196,-766,-406,105
E,1,394,747,511,214,2344,0,0,0,1,1,0,17512,4492,-1204,-445,-121,82
E,1,402,733,496,231,2394,0,0,0,1,1,0,17764,4560,-760,-547,-437,230
E,1,400,752,546,234,2371,0,0,0,1,1,0,17544,4460,-1160,-553,-222,163
E,1,401,737,507,229,2400,0,0,0,1,1,0,17756,4292,-1020,-621,-545,147
E,1,399,748,487,245,2398,0,0,0,1,1,0,17632,4760,-1116,-516,-69,37
E,1,406,737,528,215,2405,0,0,0,1,1,0,17668,4700,-876,-611,-43,76
E,1,408,737,506,243,2415,0,0,0,1,1,0,17776,4588,-880,-498,-147,244
E,1,401,733,500,256,2384,0,0,0,1,1,0,17744,4460,-1112,-598,-77,143
E,1,391,731,511,240,2363,0,0,0,1,1,0,17796,4224,-1140,-203,-289,-84
E,1,381,738,527,237,2191,0,0,0,1,1,0,17524,4892,-1096,-751,-227,-53
E,1,406,726,499,239,2201,0,0,0,1,1,0,17552,4512,-1196,-509,-280,194
E,1,399,753,495,240,2326,0,0,0,1,1,0,17792,4592,-1044,-520,23,170
E,1,384,749,527,226,2352,0,0,0,1,1,0,17668,4544,-968,-670,-138,172
E,1,400,720,529,231,2416,0,0,0,1,1,0,17824,4612,-984,-311,-111,118
E,1,411,737,497,240,2327,0,0,0,1,1,0,17784,4504,-860,-555,-118,79
E,1,415,733,526,238,2445,0,0,0,1,1,0,17616,4532,-1016,-342,-282,168
E,1,399,719,510,238,2384,0,0,0,1,1,0,17788,4444,-1072,-569,-58,-17
E,1,402,736,528,239,2224,0,0,0,1,1,0,17712,4704,-768,-597,-308,202
E,1,396,743,508,235,2425,0,0,0,1,1,0,17704,4640,-1120,-503,-72,153
E,1,403,737,528,221,2493,0,0,0,1,1,0,17912,4428,-776,-161,-289,129
E,1,423,736,496,245,2349,0,0,0,1,1,0,17780,4760,-888,-804,-95,69
E,1,422,731,525,219,2255,0,0,0,1,1,0,17864,4548,-772,-346,-431,154
E,1,399,739,529,240,2463,0,0,0,1,1,0,17668,4464,-912,-471,-189,150
E,1,412,724,525,233,2501,0,0,0,1,1,0,17676,4492,-1084,-333,-644,32
E,1,417,726,489,251,2499,0,0,0,1,1,0,17632,4560,-1040,-591,-142,111
E,1,400,734,511,227,2510,0,0,0,1,1,0,17704,4548,-924,-514,-179,193
E,1,387,746,495,229,2498,0,0,0,1,1,0,17724,4740,-1056,-752,-159,132
E,1,427,729,533,245,2487,0,0,0,1,1,0,17716,4508,-1008,-447,19,134
E,1,403,733,511,254,2499,0,0,0,1,1,0,17596,4712,-1108,-754,-282,145
E,1,402,731,501,235,2503,0,0,0,1,1,0,17856,4424,-744,-244,-61,58
E,1,404,727,509,255,2491,0,0,0,1,1,0,17600,4628,-856,-802,-252,50
E,1,428,724,506,254,2491,0,0,0,1,1,0,17708,4604,-972,-344,-262,51
E,1,396,747,523,229,2500,0,0,0,1,1,0,17780,4740,-1072,-621,-170,57
E,1,406,720,528,229,2506,0,0,0,1,1,0,17676,4528,-968,-386,-233,101
E,1,409,745,511,229,2493,0,0,0,1,1,0,17652,4528,-932,-667,-322,95
E,1,384,745,491,234,2512,0,0,0,1,1,0,17856,4392,-808,-408,-105,15
E,1,397,745,499,228,2499,0,0,0,1,1,0,17728,4972,-676,-473,-104,165
E,1,421,730,495,239,2505,0,0,0,1,1,0,17584,4652,-820,-488,-5,157
E,1,404,742,503,251,2510,0,0,0,1,1,0,17504,4284,-1132,-205,-161,57
E,1,381,735,528,221,2525,0,0,0,1,1,0,17564,4644,-696,-891,-411,152
E,1,411,729,494,244,2494,0,0,0,1,1,0,17856,4688,-1000,-441,-34,7
E,1,401,733,511,249,2503,0,0,0,1,1,0,17856,4336,-792,-672,-313,191
E,1,403,723,498,229,2512,0,0,0,1,1,0,17656,4880,-1076,-480,67,46
E,1,410,738,533,236,2491,0,0,0,1,1,0,17732,4436,-744,-636,-457,153
E,1,384,729,503,241,2487,0,0,0,1,1,0,17748,4572,-644,-259,71,135
E,1,379,737,494,239,2495,0,0,0,1,1,0,17600,4480,-1004,-884,-371,111
E,1,417,752,511,230,2496,0,0,0,1,1,0,17740,4500,-924,-247,-27,27
E,1,411,715,527,227,2423,0,0,0,1,1,0,17732,4500,-920,-661,-347,136
E,1,391,746,496,240,2469,0,0,0,1,1,0,17780,4632,-796,-301,-29,91
E,1,419,746,510,224,2475,0,0,0,1,1,0,17716,4676,-668,-990,-406,210
E,1,409,735,511,261,2470,0,0,0,1,1,0,17672,4300,-972,-173,-126,117
E,1,410,720,531,240,2489,0,0,0,1,1,0,17600,4476,-728,-393,-365,39
E,1,393,749,506,240,2498,0,0,0,1,1,0,17624,4816,-592,-827,-207,78
E,1,397,736,535,243,2506,0,0,0,1,1,0,17736,4556,-816,-180,-129,85
E,1,392,723,537,240,2481,0,0,0,1,1,0,17804,4540,-1000,-908,-531,171
E,1,400,748,525,237,2509,0,0,0,1,1,0,17860,4728,-1220,-252,-10,15
E,1,381,752,511,224,2507,0,0,0,1,1,0,17664,4780,-596,-1163,-163,287
E,1,414,735,537,239,2494,0,0,0,1,1,0,17792,4492,-592,-438,-71,194
E,1,406,753,497,250,2505,0,0,0,1,1,0,17728,4524,-716,-776,-215,160
E,1,389,735,511,227,2503,0,0,0,1,1,0,17544,4480,-612,-125,-109,87
E,1,399,739,511,231,2491,0,0,0,1,1,0,17728,4556,-816,-962,-427,172
E,1,432,727,526,235,2489,0,0,0,1,1,0,17652,4680,-904,-441,-170,85
E,1,380,746,496,242,2480,0,0,0,1,1,0,17716,4292,-816,-415,-43,99
E,1,387,739,538,218,2383,0,0,0,1,1,0,17688,4664,-724,-955,-172,23
E,1,411,729,499,242,2407,0,0,0,1,1,0,17704,4760,-488,-435,-22,143
E,1,399,726,525,234,2454,0,0,0,1,1,0,17692,4352,-748,-687,-192,173
E,1,403,747,511,230,2501,0,0,0,1,1,0,17744,4516,-916,-476,56,31
E,1,407,742,497,240,2501,0,0,0,1,1,0,17608,4576,-636,-693,-76,103
E,1,403,747,483,261,2418,0,0,0,1,1,0,17748,4852,-676,-554,-104,193
E,1,405,739,496,234,2498,0,0,0,1,1,0,17892,4456,-432,-656,-114,129
E,1,400,731,497,240,2493,0,0,0,1,1,0,17828,4528,-532,-515,-189,162
E,1,414,733,523,237,2496,0,0,0,1,1,0,17664,4616,-492,-579,-274,102
E,1,386,754,496,234,2509,0,0,0,1,1,0,17680,4644,-804,-597,-338,89
E,1,390,747,511,224,2501,0,0,0,1,1,0,17620,4364,-716,-431,-217,-27
E,1,403,732,501,235,2465,0,0,0,1,1,0,17596,4940,-732,-587,-257,98
E,1,383,737,511,235,2437,0,0,0,1,1,0,17676,4628,-764,-631,-151,198
E,1,401,750,500,241,2408,0,0,0,1,1,0,17840,4440,-504,-537,-35,170
E,1,417,735,541,226,2369,0,0,0,1,1,0,17840,4768,-528,-768,-89,174
E,1,415,739,493,255,2326,0,0,0,1,1,0,17804,4328,-532,-516,-263,86
E,1,391,737,509,231,2384,0,0,0,1,1,0,17728,4348,-604,-628,-156,34
E,1,415,727,538,222,2418,0,0,0,1,1,0,17608,4632,-592,-420,-211,-42
E,1,400,743,503,236,2416,0,0,0,1,1,0,17728,4560,-628,-554,-339,96
E,1,397,722,508,240,2439,0,0,0,1,1,0,17864,4796,-752,-455,-227,61
E,1,397,749,508,243,2433,0,0,0,1,1,0,17692,4300,-872,-661,11,144
E,1,422,738,511,237,2341,0,0,0,1,1,0,17956,4388,-596,-513,-257,90
E,1,403,735,497,254,2368,0,0,0,1,1,0,17728,4848,-104,-721,-32,29
E,1,399,753,511,233,2389,0,0,0,1,1,0,17512,4744,-676,-521,-328,135
E,1,391,720,511,217,2307,0,0,0,1,1,0,17660,4636,-696,-459,-314,156
E,1,403,739,501,241,2325,0,0,0,1,1,0,17696,4344,-724,-570,-253,68
E,1,379,735,529,228,2393,0,0,0,1,1,0,17724,4856,-636,-494,-110,154
E,1,405,733,523,215,2369,0,0,0,1,1,0,17976,4652,256,-638,-304,141
E,1,425,726,503,246,2335,0,0,0,1,1,0,17848,4608,-396,-492,-96,85
E,1,420,727,525,238,2384,0,0,0,1,1,0,17836,4664,-604,-501,-225,85
E,1,387,736,511,229,2399,0,0,0,1,1,0,17672,4456,-540,-513,-251,87
E,1,423,721,522,234,2321,0,0,0,1,1,0,17596,4736,-732,-574,-120,27
E,1,407,732,489,247,2431,0,0,0,1,1,0,17560,4784,-564,-430,-106,294
E,1,384,745,511,209,2410,0,0,0,1,1,0,17924,4596,-424,-599,-227,294
E,1,400,720,511,208,2419,0,0,0,1,1,0,18012,4368,-320,-484,-137,150
E,1,406,730,511,226,2410,0,0,0,1,1,0,17688,4492,-608,-549,-327,104
E,1,414,736,528,221,2334,0,0,0,1,1,0,17696,4264,-588,-852,-292,-72
E,1,394,748,511,209,2379,0,0,0,1,1,0,17608,4904,-604,-334,-55,36
E,1,400,721,523,239,2361,0,0,0,1,1,0,17628,4548,-604,-721,-404,194
E,1,400,721,511,235,2365,0,0,0,1,1,0,17760,4708,-344,-370,-242,79
E,1,396,743,510,225,2407,0,0,0,1,1,0,17692,4660,-600,-540,-332,227
E,1,402,752,498,243,2384,0,0,0,1,1,0,17868,4428,-668,-470,-367,160
E,1,413,720,511,228,2413,0,0,0,1,1,0,17708,4580,-668,-585,-156,-103
E,1,381,745,522,226,2404,0,0,0,1,1,0,17648,4820,-416,-413,-364,54
E,1,399,742,527,226,2394,0,0,0,1,1,0,17680,4748,-552,-671,-91,77
E,1,413,738,503,240,2401,0,0,0,1,1,0,17596,4700,-636,-458,-379,161
E,1,399,751,496,240,2422,0,0,0,1,1,0,17656,4748,-504,-522,-24,138
E,1,381,741,536,219,2441,0,0,0,1,1,0,17628,4776,-304,-701,-458,392
E,1,415,713,540,240,2429,0,0,0,1,1,0,17788,4516,-512,-334,-91,296
E,1,397,736,502,240,2512,0,0,0,1,1,0,17876,4348,-740,-887,-141,231
E,1,395,736,511,231,2498,0,0,0,1,1,0,17600,4576,-392,-442,-103,156
E,1,384,742,527,231,2421,0,0,0,1,1,0,17608,4464,-388,-603,-228,42
E,1,423,737,496,243,2395,0,0,0,1,1,0,17732,4696,-456,-570,-235,74
E,1,379,747,509,237,2403,0,0,0,1,1,0,17748,4312,-700,-489,-197,-82
E,1,395,725,511,224,2455,0,0,0,1,1,0,17792,4948,-448,-371,-269,165
E,1,411,731,507,235,2448,0,0,0,1,1,0,17812,4500,-644,-660,-347,164
E,1,411,752,493,261,2433,0,0,0,1,1,0,17712,4320,-336,-469,47,127
E,1,396,746,501,240,2447,0,0,0,1,1,0,17668,4728,-540,-690,-360,130
E,1,405,729,541,215,2397,0,0,0,1,1,0,17676,4472,-488,-540,-279,7
F,1,1175,1621,720,247,2593,0,1,1,1,1,1,16236,7312,3936,-505,-669,-416
F,1,1187,1600,758,240,2581,0,1,1,1,1,1,16116,7688,3512,42,-651,104
F,1,1151,1593,763,238,2559,0,1,1,1,1,1,15912,7548,3192,-404,-166,-263
F,1,1175,1621,720,273,2559,0,1,1,1,1,1,16292,7756,3476,-560,-236,-56
F,1,1178,1610,729,249,2559,0,1,1,1,1,1,15992,7512,3764,-365,-230,68
F,1,1178,1605,752,236,2559,0,1,1,1,1,1,16156,7956,3552,-1059,-282,160
F,1,1185,1615,714,263,2559,0,1,1,1,1,1,16140,7356,3888,-572,-183,84
F,1,1179,1623,710,269,2582,0,1,1,1,1,1,16116,7616,3976,-652,-326,120
F,1,1168,1605,766,238,2586,0,1,1,1,1,1,15980,7604,4004,-457,-571,139
F,1,1174,1616,752,240,2585,0,1,1,1,1,1,16128,7732,3380,-535,-570,352
F,1,1173,1631,704,267,2559,0,1,1,1,1,1,16124,7232,3448,-632,-229,18
F,1,1177,1634,738,256,2592,0,1,1,1,1,1,16200,7976,3484,-701,-276,130
F,1,1195,1614,727,242,2581,0,1,1,1,1,1,16360,7180,3868,-517,-266,-97
F,1,1196,1616,720,267,2559,0,1,1,1,1,1,16004,7696,4228,-278,-306,-8
F,1,1155,1621,746,240,2594,0,1,1,1,1,1,15916,7872,3768,-399,-663,-38
F,1,1170,1628,743,243,2559,0,1,1,1,1,1,16056,7796,3304,-566,-502,73
F,1,1197,1601,745,250,2559,0,1,1,1,1,1,16088,7172,3284,24,-91,276
F,1,1169,1617,766,253,2559,0,1,1,1,1,1,16164,7512,3308,-853,-66,-53
F,1,1166,1614,720,267,2590,0,1,1,1,1,1,16196,7684,4068,-547,-289,176
F,1,1196,1606,761,253,2559,0,1,1,1,1,1,16296,7644,3820,-332,3,221
F,1,1185,1616,752,237,2595,0,1,1,1,1,1,16244,7676,3564,-569,-396,152
F,1,1198,1601,754,240,2559,0,1,1,1,1,1,16252,7348,3512,-442,-90,-25
F,1,1165,1615,783,228,2590,0,1,1,1,1,1,16032,7596,3720,-162,-241,126
F,1,1167,1613,734,248,2559,0,1,1,1,1,1,15900,7788,3696,-554,-453,106
F,1,1177,1623,721,256,2590,0,1,1,1,1,1,16240,7608,3672,-451,-297,65
F,1,1136,1631,775,249,2594,0,1,1,1,1,1,16036,7824,3852,-453,-629,231
F,1,1168,1617,754,228,2594,0,1,1,1,1,1,16360,7468,3664,-247,-546,457
F,1,1168,1622,747,240,2593,0,1,1,1,1,1,16340,7224,2832,-418,-159,-90
F,1,1194,1602,769,236,2594,0,1,1,1,1,1,16220,7404,3556,-273,-552,122
F,1,1163,1621,749,262,2559,0,1,1,1,1,1,15976,7972,3492,-565,-169,40
F,1,1171,1615,731,244,2588,0,1,1,1,1,1,16192,7348,3092,-681,-519,-61
F,1,1191,1627,752,257,2587,0,1,1,1,1,1,16304,7684,3252,-723,-91,-34
F,1,1170,1598,746,258,2559,0,1,1,1,1,1,16488,7336,3496,-278,-263,87
F,1,1167,1612,731,249,2550,0,1,1,1,1,1,16196,7820,3456,-856,101,-457
F,1,1178,1624,730,250,2559,0,1,1,1,1,1,15940,8164,3820,-262,-265,276
F,1,1162,1620,709,257,2607,0,1,1,1,1,1,16176,7648,3668,-529,-220,188
F,1,1181,1630,752,230,2559,0,1,1,1,1,1,16196,7708,3168,-765,-440,373
F,1,1161,1610,779,245,2559,0,1,1,1,1,1,16456,7060,3332,-417,141,327
F,1,1149,1623,757,241,2599,0,1,1,1,1,1,15836,7704,3700,-869,-321,118
F,1,1192,1600,741,249,2590,0,1,1,1,1,1,16464,7488,3876,-665,-147,-22
F,1,1201,1611,726,267,2580,0,1,1,1,1,1,16052,7568,3792,-202,-526,183
F,1,1168,1630,736,241,2594,0,1,1,1,1,1,16240,8200,3432,-743,-544,129
F,1,1150,1606,762,210,2595,0,1,1,1,1,1,16148,7616,2608,-318,-460,495
F,1,1165,1611,758,240,2559,0,1,1,1,1,1,16532,7640,3140,-640,-286,244
F,1,1168,1639,726,270,2585,0,1,1,1,1,1,16140,7228,3268,-767,-387,87
F,1,1153,1621,784,213,2607,0,1,1,1,1,1,16304,7780,3544,-306,-40,269
F,1,1169,1630,727,256,2559,0,1,1,1,1,1,16332,7380,3428,-700,-247,42
F,1,1165,1635,745,254,2551,0,1,1,1,1,1,16380,7652,3344,-397,-29,217
F,1,1138,1633,741,240,2610,0,1,1,1,1,1,16148,7356,3244,-640,-246,107
F,1,1152,1600,752,222,2559,0,1,1,1,1,1,16252,7744,3488,-489,-275,194
F,1,1203,1594,753,257,2559,0,1,1,1,1,1,16084,7540,3520,-548,-208,139
F,1,1159,1651,718,263,2595,0,1,1,1,1,1,16416,7460,3440,-377,-397,295
F,1,1175,1635,754,237,2559,0,1,1,1,1,1,16324,7516,3308,-817,-57,-190
F,1,1163,1627,731,256,2559,0,1,1,1,1,1,16336,7640,3748,-355,-321,349
F,1,1152,1636,701,257,2602,0,1,1,1,1,1,16352,7728,3476,-793,-119,53
F,1,1165,1626,730,225,2624,0,1,1,1,1,1,16312,7164,3388,-536,-94,249
F,1,1151,1607,737,242,2549,0,1,1,1,1,1,16388,7412,3568,-752,40,29
F,1,1167,1621,717,256,2596,0,1,1,1,1,1,15932,7548,3580,-519,-248,41
F,1,1136,1617,741,263,2595,0,1,1,1,1,1,16120,7572,3476,-667,-182,159
F,1,1153,1600,755,223,2593,0,1,1,1,1,1,16188,7428,3388,-429,-281,234
F,1,1183,1606,759,245,2559,0,1,1,1,1,1,16464,7308,3312,-838,-138,-109
F,1,1149,1629,717,267,2585,0,1,1,1,1,1,16104,7676,3692,-363,-300,204
F,1,1146,1622,752,208,2605,0,1,1,1,1,1,16276,7664,3412,-538,-161,84
F,1,1190,1607,750,247,2555,0,1,1,1,1,1,16104,7328,3708,-653,-342,22
F,1,1189,1622,769,241,2595,0,1,1,1,1,1,16272,7756,3532,-506,-248,286
F,1,1154,1616,726,272,2559,0,1,1,1,1,1,16152,7092,3348,-564,-294,-81
F,1,1132,1615,757,241,2559,0,1,1,1,1,1,16604,7208,4628,-786,-197,-55
F,1,1168,1605,753,242,2559,0,1,1,1,1,1,16108,8128,3856,-688,-496,201
F,1,1159,1613,733,243,2588,0,1,1,1,1,1,16540,7180,3484,-423,-353,367
F,1,1142,1625,775,208,2601,0,1,1,1,1,1,16352,7472,3148,-679,-162,-60
F,1,1189,1607,727,266,2559,0,1,1,1,1,1,16196,7384,3388,-469,-173,52
F,1,1161,1628,735,258,2582,0,1,1,1,1,1,16188,7576,3580,-524,-80,52
F,1,1170,1626,790,230,2585,0,1,1,1,1,1,16096,7488,3624,-492,-447,161
F,1,1177,1616,752,259,2559,0,1,1,1,1,1,16268,7584,3300,-508,-289,189
F,1,1201,1616,771,240,2585,0,1,1,1,1,1,16360,7132,3480,-379,-320,129
F,1,1157,1627,727,262,2605,0,1,1,1,1,1,16392,7620,3388,-527,-45,74
F,1,1178,1600,785,225,2585,0,1,1,1,1,1,16124,7516,3568,-399,-274,-14
F,1,1153,1605,780,266,2559,0,1,1,1,1,1,16392,7372,3380,-493,-170,248
F,1,1146,1625,746,258,2559,0,1,1,1,1,1,16100,7508,3044,-554,24,-54
F,1,1151,1619,790,227,2588,0,1,1,1,1,1,16144,7456,3712,-636,-365,151
F,1,1194,1584,785,255,2559,0,1,1,1,1,1,16368,7504,3332,-434,-65,128
F,1,1163,1604,760,227,2559,0,1,1,1,1,1,16208,7544,3340,-559,-215,68
F,1,1152,1627,752,231,2608,0,1,1,1,1,1,16280,7664,3556,-760,-225,197
F,1,1168,1609,761,240,2559,0,1,1,1,1,1,16336,7288,3356,-451,-148,172
F,1,1173,1595,777,254,2559,0,1,1,1,1,1,16272,7404,3556,-829,-52,-143
F,1,1179,1599,767,240,2585,0,1,1,1,1,1,16104,7836,3780,-343,-234,162
F,1,1151,1616,785,241,2596,0,1,1,1,1,1,16160,7452,3632,-828,-601,168
F,1,1193,1611,752,272,2559,0,1,1,1,1,1,16440,7184,3544,-458,-214,152
F,1,1158,1614,754,254,2559,0,1,1,1,1,1,16288,8020,3464,-604,-22,21
F,1,1158,1599,756,255,2559,0,1,1,1,1,1,16172,7072,3844,-878,-452,27
F,1,1156,1616,766,256,2582,0,1,1,1,1,1,16172,7380,3432,-252,13,114
F,1,1153,1626,762,237,2559,0,1,1,1,1,1,16152,7604,3832,-789,-374,140
F,1,1168,1591,730,268,2608,0,1,1,1,1,1,16212,7424,3624,-376,-391,296
F,1,1163,1601,784,235,2559,0,1,1,1,1,1,16268,7288,3376,-680,-421,30
F,1,1173,1612,752,259,2551,0,1,1,1,1,1,16344,7492,3668,-514,-173,-70
F,1,1146,1606,778,234,2559,0,1,1,1,1,1,16336,7912,3628,-527,-90,41
F,1,1134,1603,801,210,2609,0,1,1,1,1,1,16140,7456,3376,-716,-317,182
F,1,1172,1603,752,272,2583,0,1,1,1,1,1,16216,7372,3564,-427,-226,225
F,1,1166,1615,746,261,2585,0,1,1,1,1,1,16156,7596,3652,-330,-18,87
F,1,1142,1616,764,242,2559,0,1,1,1,1,1,16316,7208,3824,-601,-300,28
F,1,1152,1602,761,259,2593,0,1,1,1,1,1,16164,7848,3568,-445,-117,95
F,1,1172,1611,731,269,2558,0,1,1,1,1,1,16488,7636,3704,-388,-588,224
F,1,1186,1595,733,252,2588,0,1,1,1,1,1,16412,7520,3276,-916,-457,-137
F,1,1169,1585,779,246,2559,0,1,1,1,1,1,16276,7276,3536,-279,-356,-101
F,1,1194,1596,752,288,2553,0,1,1,1,1,1,16120,7952,3544,-568,-269,7
F,1,1163,1637,754,261,2598,0,1,1,1,1,1,16172,7468,3524,-581,-609,179
F,1,1191,1584,795,261,2559,0,1,1,1,1,1,16168,7508,3176,-442,36,31
F,1,1200,1590,784,241,2587,0,1,1,1,1,1,15952,7484,3360,-577,-273,103
F,1,1199,1599,755,257,2559,0,1,1,1,1,1,16284,7824,3636,-589,-66,118
F,1,1195,1600,801,240,2608,0,1,1,1,1,1,16268,7292,3608,-328,-258,298
F,1,1197,1581,787,265,2559,0,1,1,1,1,1,16456,7540,3568,-503,-186,38
F,1,1199,1566,806,258,2559,0,1,1,1,1,1,15908,7776,3664,-649,-263,-102
F,1,1178,1571,781,256,2598,0,1,1,1,1,1,16356,7436,3824,-188,-544,403
F,1,1192,1585,784,249,2559,0,1,1,1,1,1,16132,7704,3232,-578,-52,-75
F,1,1221,1595,795,230,2595,0,1,1,1,1,1,16168,7412,3720,-489,-468,136
F,1,1200,1599,764,265,2559,0,1,1,1,1,1,16308,7572,3352,-574,-106,-30
F,1,1205,1575,781,266,2559,0,1,1,1,1,1,16132,7308,3420,-355,-453,135
F,1,1198,1580,791,274,2559,0,1,1,1,1,1,16272,7760,3400,-532,-196,-1
F,1,1199,1588,773,250,2587,0,1,1,1,1,1,15968,7660,3132,-679,-323,-30
F,1,1182,1600,774,251,2587,0,1,1,1,1,1,16140,7488,3468,-460,-423,109
F,1,1200,1562,805,240,2557,0,1,1,1,1,1,16196,7716,3496,-588,-174,-2
F,1,1191,1584,791,252,2559,0,1,1,1,1,1,16136,7484,3256,-462,-544,82
F,1,1211,1577,784,272,2559,0,1,1,1,1,1,16544,7596,3512,-343,-87,166
F,1,1189,1582,799,230,2594,0,1,1,1,1,1,16224,7652,3132,-733,-192,-69
F,1,1233,1578,819,258,2582,0,1,1,1,1,1,16316,7864,3680,-445,-307,247
F,1,1211,1569,758,289,2559,0,1,1,1,1,1,16276,7280,3584,-462,-150,143
F,1,1210,1585,794,221,2587,0,1,1,1,1,1,16212,7652,3552,-641,-219,26
F,1,1223,1571,806,267,2586,0,1,1,1,1,1,16192,7556,3268,-604,-319,81
F,1,1215,1570,766,271,2559,0,1,1,1,1,1,16396,7624,3328,-515,-305,337
F,1,1200,1591,771,240,2601,0,1,1,1,1,1,16340,7404,3172,-450,-132,45
F,1,1175,1588,784,258,2591,0,1,1,1,1,1,16444,7440,3604,-704,-298,139
F,1,1216,1565,767,267,2589,0,1,1,1,1,1,16144,7560,3540,-518,-22,-41
F,1,1197,1577,771,256,2609,0,1,1,1,1,1,16064,7488,3704,-597,-534,194
F,1,1206,1568,794,253,2559,0,1,1,1,1,1,16232,7584,3376,-392,-30,-4
F,1,1189,1580,781,257,2559,0,1,1,1,1,1,16164,7696,3312,-565,-436,184
F,1,1211,1571,778,238,2582,0,1,1,1,1,1,16216,7468,3216,-445,3,52
F,1,1217,1575,775,243,2559,0,1,1,1,1,1,16328,7468,3612,-514,-396,191
F,1,1231,1572,785,249,2590,0,1,1,1,1,1,16476,7588,3276,-366,136,52
F,1,1213,1574,775,250,2559,0,1,1,1,1,1,15920,7692,3544,-865,-596,-87
F,1,1200,1583,784,240,2608,0,1,1,1,1,1,16284,7560,3364,-170,-22,162
F,1,1203,1565,832,218,2597,0,1,1,1,1,1,15924,7824,3144,-789,-367,62
F,1,1216,1562,778,273,2587,0,1,1,1,1,1,16504,7376,3520,-524,-148,252
F,1,1223,1583,769,256,2585,0,1,1,1,1,1,16080,7564,3140,-286,37,134
F,1,1210,1555,800,228,2607,0,1,1,1,1,1,16308,7584,3544,-648,-294,105
F,1,1212,1535,789,268,2559,0,1,1,1,1,1,16220,7644,3356,-596,-246,-30
F,1,1249,1573,756,281,2559,0,1,1,1,1,1,16148,7708,3516,-365,-325,232
F,1,1200,1555,796,221,2599,0,1,1,1,1,1,16204,7616,3268,-620,-349,80
F,1,1227,1535,784,256,2585,0,1,1,1,1,1,16220,7448,3452,-630,-288,80
F,1,1231,1552,785,266,2559,0,1,1,1,1,1,16116,7904,3336,-500,-176,138
F,1,1230,1554,778,276,2559,0,1,1,1,1,1,16320,7300,3376,-617,-392,31
F,1,1212,1535,801,259,2586,0,1,1,1,1,1,16452,7784,3468,-303,-116,121
F,1,1249,1533,774,268,2594,0,1,1,1,1,1,15964,7908,3348,-683,-388,-8
F,1,1228,1567,767,271,2593,0,1,1,1,1,1,16384,7588,3344,-556,-285,264
F,1,1222,1535,793,248,2582,0,1,1,1,1,1,16120,7644,3428,-508,-174,203
F,1,1223,1535,799,255,2559,0,1,1,1,1,1,16040,7608,3444,-572,-311,136
F,1,1250,1531,805,261,2590,0,1,1,1,1,1,16140,7632,3360,-663,-324,19
F,1,1202,1534,790,249,2559,0,1,1,1,1,1,16348,7708,3224,-470,-271,243
F,1,1213,1525,794,251,2559,0,1,1,1,1,1,16304,7704,3500,-529,-57,76
F,1,1238,1530,787,272,2583,0,1,1,1,1,1,16096,7680,3628,-663,-361,182
F,1,1203,1535,800,257,2582,0,1,1,1,1,1,16016,7388,3476,-364,-210,128
F,1,1198,1535,784,256,2587,0,1,1,1,1,1,16216,7440,3456,-417,-402,227
F,1,1203,1527,797,241,2602,0,1,1,1,1,1,16204,7752,3612,-778,-204,-207
F,1,1216,1560,763,267,2593,0,1,1,1,1,1,16284,7588,3568,-600,-460,194
F,1,1213,1535,799,227,2559,0,1,1,1,1,1,16376,7740,3240,-386,0,225
F,1,1203,1525,821,228,2602,0,1,1,1,1,1,16188,7520,3504,-709,-386,29
F,1,1211,1531,786,259,2559,0,1,1,1,1,1,16448,7484,3472,-431,-119,249
F,1,1231,1535,784,233,2587,0,1,1,1,1,1,16076,7636,3364,-649,-160,-71
F,1,1200,1515,797,240,2580,0,1,1,1,1,1,16272,7472,3452,-461,-281,251
F,1,1250,1506,797,275,2544,0,1,1,1,1,1,16080,7664,3296,-764,-182,-21
F,1,1209,1535,773,270,2559,0,1,1,1,1,1,16284,7584,3704,-482,-343,372
F,1,1199,1534,801,224,2599,0,1,1,1,1,1,16040,7740,3200,-877,-156,-3
F,1,1216,1508,796,250,2559,0,1,1,1,1,1,16448,7204,3448,-556,-498,189
F,1,1233,1534,769,263,2601,0,1,1,1,1,1,16300,7536,3412,-541,-34,-165
F,1,1200,1535,816,241,2623,0,1,1,1,1,1,15856,7416,3552,-503,-592,61
F,1,1190,1522,803,240,2605,0,1,1,1,1,1,16252,7764,3428,-465,-85,68
F,1,1262,1521,798,265,2559,0,1,1,1,1,1,15896,7052,3176,-689,-287,-172
F,1,1216,1520,807,238,2559,0,1,1,1,1,1,16456,7668,2928,-205,-135,240
F,1,1213,1523,816,244,2583,0,1,1,1,1,1,16072,7804,3376,-699,-173,-156
F,1,1242,1515,813,243,2591,0,1,1,1,1,1,16508,7464,3788,-405,-502,286
F,1,1221,1525,809,239,2559,0,1,1,1,1,1,16160,7856,3176,-425,-113,166
F,1,1198,1535,787,249,2595,0,1,1,1,1,1,16228,7368,3688,-660,-541,119
F,1,1217,1535,819,253,2549,0,1,1,1,1,1,16152,7756,3424,-324,108,104
F,1,1233,1535,807,244,2559,0,1,1,1,1,1,16220,7440,3352,-650,-576,140
F,1,1227,1554,800,257,2589,0,1,1,1,1,1,16356,7556,3296,-458,-71,45
F,1,1207,1527,819,246,2609,0,1,1,1,1,1,16292,7616,3380,-494,-370,251
F,1,1247,1518,810,259,2559,0,1,1,1,1,1,16368,7752,3112,-494,-34,163
F,1,1238,1535,757,262,2597,0,1,1,1,1,1,16124,7280,3584,-808,-390,36
F,1,1210,1535,805,230,2597,0,1,1,1,1,1,16200,7584,3372,-160,-1,185
F,1,1191,1535,799,226,2559,0,1,1,1,1,1,16012,7556,3376,-809,-412,31
F,1,1241,1535,778,275,2559,0,1,1,1,1,1,16296,7284,3548,-312,-170,146
F,1,1218,1521,816,234,2593,0,1,1,1,1,1,16108,7704,3268,-636,-242,34
F,1,1222,1535,802,259,2559,0,1,1,1,1,1,16284,7708,3372,-339,-392,399
F,1,1235,1535,806,249,2587,0,1,1,1,1,1,16212,7612,3284,-713,-174,31
F,1,1237,1522,801,239,2595,0,1,1,1,1,1,16192,7260,3468,-389,-423,132
F,1,1211,1535,797,272,2559,0,1,1,1,1,1,16156,7644,3380,-792,89,-102
F,1,1230,1520,797,272,2559,0,1,1,1,1,1,15860,7680,3336,-648,-405,144
F,1,1225,1554,816,253,2584,0,1,1,1,1,1,16304,7540,3328,-417,-52,181
F,1,1216,1527,813,233,2587,0,1,1,1,1,1,16348,7568,3524,-639,-358,22
F,1,1232,1512,842,242,2595,0,1,1,1,1,1,16164,7704,3736,-439,-112,56
F,1,1242,1515,793,245,2599,0,1,1,1,1,1,16148,7472,3316,-417,-396,235
G,1,385,560,464,0,2630,0,1,1,1,1,0,17940,3400,-2436,30,-404,273
G,1,363,591,395,0,2607,0,1,1,1,1,0,17640,3160,-3212,-914,390,-2
G,1,368,586,442,0,2661,0,1,1,1,1,0,17708,3560,-1920,-659,-878,360
G,1,349,581,432,0,2612,0,1,1,1,1,0,17840,3996,-2348,-585,22,-146
G,1,333,603,430,0,2611,0,1,1,1,1,0,17736,3844,-2320,-459,-90,322
G,1,337,575,452,0,2612,0,1,1,1,1,0,17900,3892,-2340,-559,-52,122
G,1,313,567,453,0,2613,0,1,1,1,1,0,17744,3428,-2012,-855,-57,267
G,1,382,604,399,0,2627,0,1,1,1,1,0,17684,3916,-2112,-576,237,229
G,1,337,624,425,0,2624,0,1,1,1,1,0,17792,3404,-2080,-890,-937,305
G,1,336,588,435,0,2605,0,1,1,1,1,0,17728,3768,-2060,-652,296,-114
G,1,367,590,457,0,2594,0,1,1,1,1,0,17912,3572,-2012,-822,-1206,229
G,1,343,579,434,0,2605,0,1,1,1,1,0,17952,3372,-2356,-467,278,-111
G,1,320,617,454,0,2623,0,1,1,1,1,0,17632,4116,-2112,-1243,-499,229
G,1,339,578,466,0,2608,0,1,1,1,1,0,17980,3660,-1764,-433,-99,-70
G,1,372,595,409,0,2599,0,1,1,1,1,0,17648,3932,-2344,-777,-115,372
G,1,303,607,395,0,2637,0,1,1,1,1,0,17980,3544,-1752,-988,-841,140
G,1,308,613,440,0,2629,0,1,1,1,1,0,18052,3780,-1980,-605,-353,-151
G,1,325,574,437,0,2599,0,1,1,1,1,0,17748,3976,-2356,-413,-751,176
G,1,339,597,405,0,2599,0,1,1,1,1,0,17816,3700,-2172,-890,-657,-98
G,1,298,586,453,0,2623,0,1,1,1,1,0,17596,3672,-2640,-278,-325,100
G,1,325,573,405,0,2605,0,1,1,1,1,0,17648,3764,-2612,-708,-616,159
G,1,319,599,393,0,2605,0,1,1,1,1,0,17772,3628,-2592,-749,-462,66
G,1,314,602,400,0,2633,0,1,1,1,1,0,17596,3876,-2588,-382,28,46
G,1,337,583,454,0,2622,0,1,1,1,1,0,17884,3872,-2492,-1104,-395,154
G,1,362,621,421,0,2608,0,1,1,1,1,0,17632,3624,-2344,177,-295,-123
G,1,350,583,448,0,2619,0,1,1,1,1,0,17792,4076,-2644,-1477,-68,351
G,1,336,624,406,0,2633,0,1,1,1,1,0,17800,4720,-1728,564,-1723,196
G,1,354,576,479,0,2594,0,1,1,1,1,0,17980,3740,-2536,-1534,403,589
G,1,333,611,396,0,2613,0,1,1,1,1,0,17668,3232,-2824,-213,-36,-118
G,1,339,589,417,0,2627,0,1,1,1,1,0,17988,4324,-1684,-663,-240,216
G,1,322,560,464,0,2605,0,1,1,1,1,0,17788,3360,-2544,-635,-189,-43
G,1,361,573,448,0,2598,0,1,1,1,1,0,17940,4064,-2140,-38,-308,116
G,1,364,624,395,0,2639,0,1,1,1,1,0,17660,3668,-2664,-809,169,59
G,1,314,579,459,0,2615,0,1,1,1,1,0,17700,3552,-1892,-213,-372,257
G,1,363,593,418,0,2597,0,1,1,1,1,0,17580,3632,-2488,-769,-52,174
G,1,309,626,417,0,2607,0,1,1,1,1,0,17692,3728,-2352,264,-445,319
G,1,353,590,439,0,2624,0,1,1,1,1,0,17812,3852,-2304,-895,93,169
G,1,386,564,451,0,2587,0,1,1,1,1,0,17844,3200,-1956,158,-539,82
G,1,348,592,415,0,2615,0,1,1,1,1,0,17840,4208,-1776,-577,502,98
G,1,278,622,393,0,2623,0,1,1,1,1,0,17816,3064,-2144,-482,-555,415
G,1,317,602,402,0,2615,0,1,1,1,1,0,17776,3368,-2480,-159,-308,-203
G,1,351,579,419,0,2598,0,1,1,1,1,0,17416,4060,-2864,-508,26,-260
G,1,283,597,427,0,2627,0,1,1,1,1,0,17884,3828,-2188,-181,-62,380
G,1,339,592,464,0,2622,0,1,1,1,1,0,17968,3544,-2008,-869,-110,151
G,1,375,558,477,0,2583,0,1,1,1,1,0,17880,3068,-2188,62,-674,3
G,1,351,613,409,0,2634,0,1,1,1,1,0,17904,3520,-2428,-886,-185,-222
G,1,315,579,439,0,2624,0,1,1,1,1,0,17468,3812,-2892,-965,-214,-116
G,1,352,579,448,0,2611,0,1,1,1,1,0,17832,4316,-2204,-270,333,135
G,1,361,589,427,0,2625,0,1,1,1,1,0,17432,3664,-2740,-1329,706,199
G,1,313,625,421,0,2621,0,1,1,1,1,0,17960,4036,-1648,-209,293,431
G,1,287,587,459,0,2611,0,1,1,1,1,0,18032,3336,-1704,-914,169,395
G,1,339,592,465,0,2608,0,1,1,1,1,0,17956,3336,-1420,175,-450,180
G,1,336,624,389,0,2640,0,1,1,1,1,0,18068,3360,-2136,-1059,-456,-279
G,1,340,585,426,0,2610,0,1,1,1,1,0,17700,3272,-2156,438,-79,-657
G,1,338,603,430,0,2609,0,1,1,1,1,0,18020,4676,-1916,-534,-294,-90
G,1,338,620,418,0,2594,0,1,1,1,1,0,17608,3512,-2248,-480,-406,101
G,1,359,589,411,0,2613,0,1,1,1,1,0,17764,3868,-2024,-603,-485,65
G,1,336,600,454,0,2608,0,1,1,1,1,0,17784,3580,-2200,-788,674,-18
G,1,349,581,432,0,2601,0,1,1,1,1,0,17808,3408,-2176,105,-1141,-164
G,1,320,635,415,0,2616,0,1,1,1,1,0,17912,4368,-1880,-1189,-102,15
G,1,351,592,420,0,2606,0,1,1,1,1,0,17736,4308,-1496,-58,-88,210
G,1,385,585,393,0,2608,0,1,1,1,1,0,17668,3372,-2388,-721,-664,304
G,1,305,612,479,0,2606,0,1,1,1,1,0,17800,3640,-2348,-391,-558,124
G,1,322,599,445,0,2624,0,1,1,1,1,0,17748,3460,-2892,-1114,716,-15
G,1,308,613,431,0,2583,0,1,1,1,1,0,17740,4048,-2172,35,-640,-212
G,1,352,595,448,0,2594,0,1,1,1,1,0,18152,4336,-1252,-1155,486,233
G,1,315,570,432,0,2627,0,1,1,1,1,0,17672,3636,-1936,34,-639,109
G,1,321,594,442,0,2622,0,1,1,1,1,0,17620,3964,-2424,-669,125,148
G,1,347,587,429,0,2605,0,1,1,1,1,0,17600,3112,-2848,-551,1011,438
G,1,299,605,398,0,2599,0,1,1,1,1,0,17916,3288,-2512,-816,-105,467
G,1,320,621,436,0,2623,0,1,1,1,1,0,17872,3576,-1612,-935,732,72
G,1,338,593,423,0,2587,0,1,1,1,1,0,17960,4152,-1284,47,-967,205
G,1,321,583,438,0,2608,0,1,1,1,1,0,17864,3804,-1848,-402,-244,23
G,1,288,594,453,0,2605,0,1,1,1,1,0,17772,3544,-2460,-253,-577,-88
G,1,336,558,415,0,2608,0,1,1,1,1,0,17620,3672,-2512,-754,41,-63
G,1,315,587,432,0,2626,0,1,1,1,1,0,17624,3796,-2264,-490,-227,-43
G,1,336,607,438,0,2624,0,1,1,1,1,0,17656,4188,-1952,-742,-165,280
G,1,330,590,439,0,2608,0,1,1,1,1,0,17848,3408,-1936,-685,-240,193
G,1,371,577,457,0,2559,0,1,1,1,1,0,17940,3628,-1996,-296,76,-4
G,1,330,613,402,0,2633,0,1,1,1,1,0,17812,4084,-1904,-987,-405,189
G,1,283,598,455,0,2617,0,1,1,1,1,0,17784,4000,-2312,-237,69,248
G,1,362,569,431,0,2608,0,1,1,1,1,0,17612,3764,-2156,-668,-164,328
G,1,352,607,386,0,2606,0,1,1,1,1,0,17708,3380,-1984,-653,-23,261
G,1,343,579,450,0,2631,0,1,1,1,1,0,17820,3636,-1776,-554,-108,141
G,1,295,602,430,0,2640,0,1,1,1,1,0,17996,3672,-1520,-508,14,-48
G,1,331,589,466,0,2625,0,1,1,1,1,0,18088,3732,-1412,-943,-31,-270
G,1,337,576,432,0,2613,0,1,1,1,1,0,17988,4100,-1368,-503,-522,-39
G,1,340,592,446,0,2615,0,1,1,1,1,0,17928,3928,-2028,-280,-594,48
G,1,359,582,403,0,2559,0,1,1,1,1,0,17744,3864,-2296,-784,-464,98
G,1,369,622,430,0,2632,0,1,1,1,1,0,17580,4276,-1920,-813,76,160
G,1,317,592,469,0,2629,0,1,1,1,1,0,17764,3668,-1904,-739,-57,405
G,1,336,590,393,0,2624,0,1,1,1,1,0,17976,3628,-1672,-735,-293,274
G,1,330,621,432,0,2612,0,1,1,1,1,0,17744,3640,-2176,-1262,-98,379
G,1,318,606,432,0,2608,0,1,1,1,1,0,17924,3564,-1336,36,60,-143
G,1,295,562,405,0,2585,0,1,1,1,1,0,17804,4024,-1544,-1162,535,199
G,1,341,592,419,0,2617,0,1,1,1,1,0,17808,3792,-1080,-220,-743,-30
G,1,336,594,432,0,2614,0,1,1,1,1,0,17880,3668,-1828,-187,-249,-33
G,1,331,584,459,0,2614,0,1,1,1,1,0,17656,3628,-2308,-152,-1048,-52
G,1,398,574,430,0,2597,0,1,1,1,1,0,17896,3852,-2252,-687,-29,-82
G,1,333,624,400,0,2617,0,1,1,1,1,0,17836,3824,-1588,-556,-223,196
G,1,296,592,425,0,2611,0,1,1,1,1,0,17944,3884,-1276,-330,-360,152
G,1,350,594,415,0,2601,0,1,1,1,1,0,17880,3572,-1836,-829,-104,94
G,1,357,592,404,0,2605,0,1,1,1,1,0,17572,3444,-2228,-502,-766,124
G,1,313,621,409,0,2621,0,1,1,1,1,0,17920,4120,-1540,-268,-25,72
G,1,298,618,399,0,2604,0,1,1,1,1,0,17716,3588,-2000,-856,-747,386
G,1,330,592,451,0,2593,0,1,1,1,1,0,17924,3672,-1708,-192,238,-12
G,1,278,637,407,0,2640,0,1,1,1,1,0,17828,4104,-1992,-757,-348,274
G,1,333,592,431,0,2598,0,1,1,1,1,0,17880,3732,-1748,-69,-355,280
G,1,350,585,447,0,2612,0,1,1,1,1,0,17696,3768,-2224,-683,95,313
G,1,321,624,423,0,2610,0,1,1,1,1,0,17640,3808,-1772,-326,-73,338
G,1,299,592,457,0,2608,0,1,1,1,1,0,17868,3480,-2104,-740,307,159
G,1,358,592,477,0,2605,0,1,1,1,1,0,17680,3864,-1292,-577,467,191
G,1,350,601,404,0,2598,0,1,1,1,1,0,18040,3764,-988,-772,-586,371
G,1,326,606,432,0,2609,0,1,1,1,1,0,17948,3172,-1848,-171,-365,-174
G,1,318,563,467,0,2636,0,1,1,1,1,0,18176,3984,-988,-757,-1072,254
G,1,336,587,547,410,2593,0,1,1,1,1,0,17712,3172,-2080,-389,-740,-259
G,1,337,579,480,436,2616,0,1,1,1,1,0,17788,3744,-2256,-550,-927,-302
G,1,317,597,494,410,2629,0,1,1,1,1,0,17480,3912,-2668,-843,-746,-261
G,1,367,570,471,449,2608,0,1,1,1,1,0,17672,4060,-1776,-515,-457,32
G,1,383,577,499,436,2595,0,1,1,1,1,0,17972,3288,-2588,-407,-1778,-174
G,1,334,622,485,420,2630,0,1,1,1,1,0,17676,4040,-2532,-237,-134,-114
G,1,318,589,502,403,2599,0,1,1,1,1,0,17788,3296,-2228,-521,-1581,-248
G,1,350,593,503,420,2608,0,1,1,1,1,0,17676,4732,-2588,-643,629,152
G,1,337,592,481,441,2601,0,1,1,1,1,0,17376,3524,-2452,-976,-966,259
G,1,336,605,485,449,2595,0,1,1,1,1,0,17824,3828,-2952,23,924,23
G,1,334,592,477,428,2599,0,1,1,1,1,0,17616,3836,-2316,-852,-344,205
G,1,336,609,464,438,2622,0,1,1,1,1,0,17824,4188,-2040,-198,351,45
G,1,320,590,497,423,2611,0,1,1,1,1,0,17844,3752,-2388,-946,-103,174
G,1,336,594,455,432,2585,0,1,1,1,1,0,17800,3456,-2204,-39,154,-132
G,1,326,625,458,462,2602,0,1,1,1,1,0,17372,4064,-2288,-1007,166,-48
G,1,321,618,472,421,2640,0,1,1,1,1,0,17932,4440,-1084,-337,-249,207
G,1,340,566,511,432,2613,0,1,1,1,1,0,17576,4120,-2060,-724,-667,452
G,1,361,589,494,441,2602,0,1,1,1,1,0,17804,3392,-2156,-838,-769,416
G,1,361,591,507,450,2631,0,1,1,1,1,0,17848,3648,-2272,-284,548,-53
G,1,326,597,464,475,2593,0,1,1,1,1,0,17908,4076,-1440,-87,-914,386
G,1,334,559,472,432,2608,0,1,1,1,1,0,17736,3832,-2204,-700,-960,549
G,1,349,598,454,468,2613,0,1,1,1,1,0,17640,2628,-2672,-317,-923,-133
G,1,305,623,445,457,2629,0,1,1,1,1,0,17624,4056,-2560,-754,271,-497
G,1,330,618,459,460,2608,0,1,1,1,1,0,17656,3664,-1984,-97,-806,228
G,1,366,586,448,499,2559,0,1,1,1,1,0,17784,4036,-2588,-408,-652,78
G,1,321,592,439,485,2624,0,1,1,1,1,0,17608,3624,-2972,-280,-359,-125
G,1,323,599,465,464,2611,0,1,1,1,1,0,17744,4712,-2968,-438,185,-88
G,1,349,592,454,466,2608,0,1,1,1,1,0,17796,2096,-2568,-957,363,261
G,1,336,599,465,506,2611,0,1,1,1,1,0,17632,3588,-2244,-362,602,-171
G,1,302,620,458,467,2641,0,1,1,1,1,0,17936,4476,-1200,-773,156,-108
G,1,331,587,449,496,2598,0,1,1,1,1,0,17556,4152,-2160,319,89,-1
G,1,343,594,454,462,2599,0,1,1,1,1,0,17788,4704,-2012,-613,-126,560
G,1,346,599,461,475,2622,0,1,1,1,1,0,17852,3304,-2508,-993,379,587
G,1,375,588,432,457,2613,0,1,1,1,1,0,18080,3152,-1420,-490,272,29
G,1,321,601,479,454,2610,0,1,1,1,1,0,17800,3360,-1396,-1222,44,61
G,1,335,592,442,503,2614,0,1,1,1,1,0,18028,3852,-1188,23,-923,-492
G,1,326,593,474,452,2611,0,1,1,1,1,0,17416,4576,-2408,-511,211,-382
G,1,363,576,478,487,2596,0,1,1,1,1,0,17604,4860,-1584,316,-1085,126
G,1,373,604,469,464,2594,0,1,1,1,1,0,17848,3700,-2596,-711,-456,648
G,1,311,619,427,501,2608,0,1,1,1,1,0,17668,3124,-2404,-383,-736,-77
G,1,321,560,500,483,2605,0,1,1,1,1,0,18092,4128,-1268,-39,142,-237
G,1,359,594,458,496,2608,0,1,1,1,1,0,17576,3908,-1424,-20,-1617,-24
G,1,329,637,464,448,2608,0,1,1,1,1,0,17940,4304,-1936,171,-1300,48
G,1,310,610,463,477,2630,0,1,1,1,1,0,17596,3700,-2940,-414,-1193,330
G,1,359,576,442,458,2602,0,1,1,1,1,0,17468,3772,-3312,-86,-1115,-105
G,1,321,592,470,495,2634,0,1,1,1,1,0,17664,3752,-2948,-1116,28,-319
G,1,320,607,440,485,2621,0,1,1,1,1,0,17496,4500,-2168,-146,-654,-179
G,1,361,569,479,510,2608,0,1,1,1,1,0,17668,4920,-2436,-201,-145,205
G,1,320,602,386,534,2601,0,1,1,1,1,0,17456,3984,-2808,138,-1035,839
G,1,322,605,413,486,2597,0,1,1,1,1,0,17676,3252,-3372,-905,157,521
G,1,331,574,493,489,2603,0,1,1,1,1,0,17444,3108,-3260,-990,253,57
G,1,359,583,449,499,2596,0,1,1,1,1,0,17980,4472,-1956,-747,810,-98
G,1,337,609,430,503,2618,0,1,1,1,1,0,17672,4232,-1852,-713,-261,252
G,1,281,612,441,481,2608,0,1,1,1,1,0,17924,4240,-2324,219,-466,226
G,1,348,565,462,524,2583,0,1,1,1,1,0,17628,3704,-2668,-485,-1080,318
G,1,333,639,417,511,2588,0,1,1,1,1,0,17840,2972,-3112,-430,-473,-138
G,1,329,614,446,476,2634,0,1,1,1,1,0,17512,4168,-2232,-215,-607,-376
G,1,342,586,478,465,2627,0,1,1,1,1,0,17644,4520,-3264,-151,-1906,603
G,1,357,588,443,549,2597,0,1,1,1,1,0,17584,3000,-3512,-920,469,12
G,1,322,610,448,471,2629,0,1,1,1,1,0,17780,4176,-2004,-959,-62,-62
G,1,339,590,462,486,2611,0,1,1,1,1,0,17772,3664,-1920,-782,-441,-219
G,1,368,589,451,511,2584,0,1,1,1,1,0,17800,4364,-2092,-412,-1290,8
G,1,320,611,436,496,2640,0,1,1,1,1,0,17564,3856,-2876,-903,-681,311
G,1,300,602,477,469,2653,0,1,1,1,1,0,17448,3600,-3404,328,-950,-183
G,1,336,589,445,498,2598,0,1,1,1,1,0,17436,4164,-3176,-669,-663,157
G,1,365,591,457,496,2594,0,1,1,1,1,0,17540,3636,-3664,-663,-958,368
G,1,352,592,447,491,2614,0,1,1,1,1,0,17536,3232,-4184,-1336,203,-114
G,1,304,603,444,464,2595,0,1,1,1,1,0,17860,3988,-2300,-918,2,-368
G,1,329,609,464,532,2598,0,1,1,1,1,0,17588,4776,-2072,-783,-33,-134
G,1,320,606,442,485,2622,0,1,1,1,1,0,17464,4100,-2348,-412,-849,172
G,1,342,590,452,475,2614,0,1,1,1,1,0,17440,4532,-2912,-524,-1054,455
G,1,363,588,464,494,2614,1,1,1,1,1,0,17388,3404,-3892,-305,-317,197
G,1,317,640,381,543,2604,1,1,1,1,1,0,17556,3836,-3188,-881,-228,162
G,1,304,585,471,464,2620,1,1,1,1,1,0,17664,3728,-3264,-467,-72,-176
G,1,350,576,461,496,2621,1,1,1,1,1,0,17680,3776,-2880,-242,-449,-311
G,1,343,619,421,528,2607,1,1,1,1,1,0,17428,4632,-3324,-497,-86,-294
G,1,338,592,464,490,2609,1,1,1,1,1,0,17320,4688,-2924,-200,-326,194
G,1,376,586,462,491,2629,1,1,1,1,1,0,17464,4376,-3272,-422,-385,676
G,1,379,564,462,498,2615,1,1,1,1,1,0,17556,3584,-3300,-427,-489,672
G,1,358,595,469,502,2618,1,1,1,1,1,0,17656,3520,-3200,-1108,-316,246
G,1,368,574,426,499,2624,1,1,1,1,1,0,17492,4120,-2984,-598,-490,-6
G,1,337,596,453,493,2613,1,1,1,1,1,0,17648,4440,-2984,-1161,-381,470
G,1,389,592,421,482,2629,1,1,1,1,1,0,17352,4120,-3512,-1254,106,330
G,1,345,589,496,477,2610,1,1,1,1,1,0,17732,3812,-3328,-1332,-518,799
G,1,351,570,485,494,2608,1,1,1,1,1,0,17100,3324,-4500,-1540,74,304
G,1,330,623,455,426,2614,1,1,1,1,1,0,18472,2080,-848,-1452,-207,-201
G,1,369,580,528,421,2617,1,1,1,1,1,0,18040,2456,-296,-628,-195,-197
G,1,336,617,441,432,2601,1,1,1,1,1,0,18368,2348,-396,-578,-554,-404
G,1,352,586,455,475,2633,1,1,1,1,1,0,18180,2736,-644,-984,-1066,-246
G,1,330,595,446,436,2612,1,1,1,1,1,0,18060,1964,-1184,-5,-763,-674
G,1,346,610,447,429,2621,1,1,1,1,1,0,18120,2748,-1300,-1065,-613,-532
G,1,342,625,463,426,2609,1,1,1,1,1,0,18276,3132,-940,395,-438,-613
G,1,318,592,460,423,2631,1,1,1,1,1,0,18048,3040,-1344,-700,-367,-216
G,1,325,615,442,434,2656,1,1,1,1,1,0,18064,3212,-900,-67,-449,-107
G,1,355,626,433,413,2613,1,1,1,1,1,0,18096,2608,-708,-718,-726,144
G,1,359,603,463,432,2621,1,1,1,1,1,0,17940,3208,-1516,294,-1156,-114
G,1,367,591,464,432,2621,1,1,1,1,1,0,18096,2636,-1624,-865,-410,194
G,1,340,622,485,414,2618,1,1,1,1,1,0,17944,3044,-992,75,-220,24
G,1,375,606,447,468,2593,1,1,1,1,1,0,18168,2616,-1820,227,416,583
G,1,346,582,429,467,2609,1,1,1,1,1,0,18140,3168,-1044,-155,-344,628
G,1,337,609,476,432,2629,1,1,1,1,1,0,18080,2608,-972,-945,59,629
G,1,380,596,482,423,2635,1,1,1,1,1,0,17720,2744,-1936,-476,-494,-214
G,1,359,610,438,458,2598,1,1,1,1,1,0,18196,2776,-1636,-841,405,276
G,1,337,599,459,450,2633,1,1,1,1,1,0,17964,2724,-1420,-466,-353,-109
G,1,324,594,448,434,2601,1,1,1,1,1,0,18196,2868,-876,-715,67,218
G,1,352,593,451,461,2590,1,1,1,1,1,0,18120,2584,-944,-118,-417,-89
G,1,362,625,425,434,2627,1,1,1,1,1,0,18236,2836,-1184,-445,-229,34
G,1,357,609,459,423,2602,1,1,1,1,1,0,18012,2908,-1376,-701,42,-23
G,1,312,605,499,432,2594,1,1,1,1,1,0,18088,2992,-1204,141,-351,168
G,1,375,595,451,435,2610,1,1,1,1,1,0,17856,3220,-1976,-323,264,400
G,1,336,623,446,431,2635,1,1,1,1,1,0,18072,2784,-1216,-704,329,489
G,1,350,607,431,417,2598,1,1,1,1,1,0,18156,2924,-712,-1486,-390,229
G,1,343,592,486,437,2637,1,1,1,1,1,0,18472,2224,-420,-525,-283,564
G,1,352,599,486,443,2631,1,1,1,1,1,0,18280,1928,-688,-805,-1024,-120
G,1,351,597,480,437,2624,1,1,1,1,1,0,17928,2856,-1292,-254,-426,-478
G,1,330,644,452,447,2610,1,1,1,1,1,0,17820,3044,-1944,-1441,-901,-179
G,1,317,629,441,432,2616,1,1,1,1,1,0,17944,2920,-1548,-338,285,-119
G,1,337,621,446,439,2623,1,1,1,1,1,0,18480,2256,-736,-1978,-1169,309
G,1,325,615,455,455,2615,1,1,1,1,1,0,18172,2320,-1756,-76,184,-502
G,1,348,618,443,447,2609,1,1,1,1,1,0,18204,3304,-804,-976,-728,-501
G,1,358,593,463,485,2614,1,1,1,1,1,0,17732,3660,-1528,-311,34,-75
G,1,384,621,436,458,2605,1,1,1,1,1,0,17960,2808,-928,353,-624,80
G,1,339,613,451,450,2608,1,1,1,1,1,0,17920,2844,-1716,-666,-524,71
G,1,335,630,436,429,2635,1,1,1,1,1,0,17856,2752,-1608,-337,-245,-89
G,1,326,606,460,432,2627,1,1,1,1,1,0,18132,3164,-1308,-364,-575,13
G,1,339,583,431,452,2637,1,1,1,1,1,0,18048,3400,-1340,-746,-303,78
G,1,342,606,464,449,2640,1,1,1,1,1,0,18208,2744,-1220,-420,-447,30
G,1,351,615,439,437,2598,1,1,1,1,1,0,18140,3132,-1460,-414,-608,-147
G,1,309,627,447,451,2608,1,1,1,1,1,0,17824,3592,-1888,-75,-460,57
G,1,355,605,465,464,2606,1,1,1,1,1,0,17852,3296,-1700,-820,-344,-19
G,1,308,634,422,411,2625,1,1,1,1,1,0,17880,3016,-1564,-512,-273,109
G,1,343,635,431,445,2635,1,1,1,1,1,0,18168,3492,-1212,-361,-229,199
G,1,346,607,435,471,2608,1,1,1,1,1,0,17940,2760,-1628,-394,-679,181
G,1,336,597,427,483,2636,1,1,1,1,1,0,18108,2796,-1792,-203,-340,-113
G,1,336,619,484,402,2637,1,1,1,1,1,0,17912,3120,-1668,-573,-290,19
G,1,342,589,489,417,2624,1,1,1,1,1,0,17972,3132,-1628,-570,-292,44
G,1,349,629,438,496,2599,1,1,1,1,1,0,17948,3476,-1352,-597,-90,18
G,1,325,624,404,441,2622,1,1,1,1,1,0,18232,3156,-1480,-669,-557,-23
G,1,325,624,455,450,2623,1,1,1,1,1,0,17872,3068,-1832,-340,98,-41
G,1,352,617,444,459,2608,1,1,1,1,1,0,17976,3264,-1640,-892,-455,137
G,1,334,630,444,447,2628,1,1,1,1,1,0,18136,3104,-1616,-206,77,-37
G,1,326,611,459,429,2627,1,1,1,1,1,0,17892,3164,-1520,-610,-325,124
G,1,333,587,528,414,2606,1,1,1,1,1,0,18012,3000,-1592,-465,-28,118
G,1,357,609,473,438,2623,1,1,1,1,1,0,17952,3180,-1456,-440,-184,15
G,1,326,612,464,425,2631,1,1,1,1,1,0,18012,3484,-1640,-471,-166,145
G,1,359,573,477,395,2630,1,1,1,1,1,0,18032,3172,-1676,-51,-43,173
G,1,337,607,471,439,2624,1,1,1,1,1,0,18112,3268,-1280,-512,-540,327
G,1,338,630,424,451,2610,1,1,1,1,1,0,17984,2628,-1760,-255,-480,135
G,1,346,608,448,421,2608,1,1,1,1,1,0,18056,2984,-1712,-524,-349,-153
G,1,340,606,471,446,2607,1,1,1,1,1,0,17824,3288,-1368,-888,-208,-27
G,1,404,618,463,464,2622,1,1,1,1,1,0,18108,3648,-1196,-169,-389,101
G,1,333,635,451,419,2640,1,1,1,1,1,0,18036,3316,-1740,-748,10,110
G,1,341,594,461,409,2624,1,1,1,1,1,0,18032,3128,-1520,-376,-489,215
G,1,359,640,421,445,2618,1,1,1,1,1,0,17964,3340,-1524,-673,176,107
G,1,332,615,432,439,2627,1,1,1,1,1,0,17828,3196,-1356,-543,-424,156
G,1,385,602,471,424,2613,1,1,1,1,1,0,17936,3216,-1660,-390,-186,175
G,1,379,595,464,449,2603,1,1,1,1,1,0,17872,2808,-1772,-673,-236,30
G,1,340,623,416,466,2641,1,1,1,1,1,0,18008,3472,-1532,-399,-17,56
G,1,352,598,477,418,2651,1,1,1,1,1,0,17940,3368,-1356,-1024,-150,114
G,1,360,604,448,429,2629,1,1,1,1,1,0,18036,3088,-1480,-428,-496,134
G,1,381,603,442,442,2611,1,1,1,1,1,0,18044,3216,-1484,-690,17,56
G,1,343,594,460,448,2618,1,1,1,1,1,0,17900,3272,-1388,-504,-517,179
G,1,323,627,466,422,2618,1,1,1,1,1,0,17996,3008,-1536,-489,-46,163
G,1,369,600,442,432,2619,1,1,1,1,1,0,17732,3124,-1736,-370,-368,-31
G,1,343,639,423,417,2631,1,1,1,1,1,0,18224,3240,-1428,-648,-266,210
G,1,368,607,497,421,2647,1,1,1,1,1,0,18016,3356,-1684,-700,44,12
G,1,368,608,458,443,2617,1,1,1,1,1,0,18224,3204,-1172,-265,-384,168
G,1,333,621,450,410,2605,1,1,1,1,1,0,17804,3132,-1528,-659,-8,72
G,1,336,624,464,426,2608,1,1,1,1,1,0,17976,3136,-1336,-512,-535,48
G,1,369,591,458,403,2609,1,1,1,1,1,0,18012,3512,-1520,-293,-167,39
G,1,311,586,475,450,2603,1,1,1,1,1,0,17892,3064,-1320,-875,-407,125
G,1,343,625,457,403,2617,1,1,1,1,1,0,18072,3564,-1160,-59,-35,-68
G,1,335,594,490,415,2599,1,1,1,1,1,0,17872,3268,-1840,-1385,-775,365
G,1,344,605,449,447,2619,1,1,1,1,1,0,18092,3316,-1632,-240,-244,23
G,1,365,598,464,436,2606,1,1,1,1,1,0,17728,3624,-1732,-1304,324,90
G,1,370,592,496,402,2619,1,1,1,1,1,0,17704,4104,-1308,456,-63,608
G,1,340,637,433,442,2614,1,1,1,1,1,0,18108,2992,-1388,153,140,926
G,1,326,603,462,450,2635,1,1,1,1,1,0,18216,2904,-1696,364,-114,345
G,1,332,606,455,415,2634,1,1,1,1,1,0,18116,3180,-1916,716,440,469
G,1,356,595,483,432,2612,1,1,1,1,1,0,18288,3116,-1844,179,748,558
G,1,340,596,464,417,2629,1,1,1,1,1,0,18152,2336,-1096,254,1161,368
G,1,317,633,454,430,2599,1,1,1,1,1,0,18132,2820,-408,-832,769,263
G,1,311,635,464,439,2609,1,1,1,1,1,0,18204,3000,-476,235,586,70
G,1,371,607,464,436,2619,1,1,1,1,1,0,18012,2812,-956,-759,-222,129
G,1,343,649,419,469,2617,1,1,1,1,1,0,18116,3116,-1124,164,141,-87
G,1,336,592,486,429,2622,1,1,1,1,1,0,18556,2632,-888,-1703,-40,6
G,1,324,608,511,416,2630,1,1,1,1,1,0,17760,2864,-2340,-220,623,64
G,1,343,640,483,443,2599,1,1,1,1,1,0,18532,2328,-324,-848,405,291
G,1,350,628,432,447,2623,1,1,1,1,1,0,18144,2800,-100,-35,662,-147
G,1,336,599,458,400,2613,1,1,1,1,1,0,18124,2920,-160,-1001,101,150
G,1,330,612,444,435,2608,1,1,1,1,1,0,18152,2896,-272,-61,-187,-68
G,1,349,623,425,438,2608,1,1,1,1,1,0,18044,3632,-396,-450,170,392
G,1,367,615,443,410,2634,1,1,1,1,1,0,18216,2936,-516,-273,357,611
G,1,368,594,490,432,2610,1,1,1,1,1,0,18324,2816,-152,-495,-72,561
G,1,364,639,442,466,2595,1,1,1,1,1,0,18184,2624,-344,-431,193,586
G,1,354,579,475,422,2641,1,1,1,1,1,0,18292,2576,-320,-771,-186,342
G,1,363,627,463,451,2593,1,1,1,1,1,0,18100,2576,44,-575,391,52
G,1,354,597,471,454,2609,1,1,1,1,1,0,18160,2508,160,-541,-725,66
G,1,363,612,455,438,2622,1,1,1,1,1,0,18308,2976,-428,-33,-248,-101
G,1,360,599,500,418,2604,1,1,1,1,1,0,18148,2696,-280,-678,-458,49
G,1,341,641,451,453,2607,1,1,1,1,1,0,18048,2972,-124,-190,-509,-54
G,1,351,621,446,445,2603,1,1,1,1,1,0,18092,2588,-740,-734,29,186
G,1,322,609,483,427,2619,1,1,1,1,1,0,17948,2804,-612,-571,-581,-37
G,1,336,623,459,439,2618,1,1,1,1,1,0,18280,2916,80,-326,-18,218
G,1,352,633,423,483,2606,1,1,1,1,1,0,18056,2704,-132,-1010,-915,-137
G,1,315,640,502,431,2640,1,1,1,1,1,0,18264,2864,-348,-283,-240,-24
G,1,338,592,497,445,2627,1,1,1,1,1,0,18184,2656,-708,-898,-512,-94
G,1,363,618,432,446,2608,1,1,1,1,1,0,18060,2936,-392,-422,-41,-95
G,1,352,624,423,451,2611,1,1,1,1,1,0,17920,3000,-384,-625,-541,151
G,1,343,610,449,442,2597,1,1,1,1,1,0,18036,3072,-304,-564,-263,122
G,1,344,605,455,444,2615,1,1,1,1,1,0,18052,2544,-776,-630,-382,-16
G,1,333,595,454,459,2608,1,1,1,1,1,0,18172,3168,-644,-905,47,70
G,1,334,621,436,449,2608,1,1,1,1,1,0,18208,3292,-356,-599,78,110
G,1,350,615,477,424,2623,1,1,1,1,1,0,18052,3004,-248,-717,-64,361
G,1,397,606,488,429,2609,1,1,1,1,1,0,18096,2604,-116,-500,120,246
G,1,367,639,368,433,2640,1,1,1,1,1,0,18128,2660,-200,-666,-142,201
G,1,304,613,462,409,2601,1,1,1,1,1,0,18392,2692,-8,-284,48,201
G,1,368,601,461,446,2606,1,1,1,1,1,0,18116,2948,-56,-853,-298,135
G,1,345,615,436,448,2617,1,1,1,1,1,0,18276,2928,216,-380,-292,40
G,1,317,622,422,449,2633,1,1,1,1,1,0,18156,2620,-272,-633,-536,2
G,1,353,630,453,432,2608,1,1,1,1,1,0,18024,2756,-792,-780,-441,54
G,1,386,642,446,441,2606,1,1,1,1,1,0,17996,2696,-244,-505,-188,-4
G,1,326,645,464,421,2627,1,1,1,1,1,0,18324,2984,-1480,-835,-137,44
G,1,317,640,503,404,2635,1,1,1,1,1,0,18236,3012,236,-11,-403,-80
G,1,383,589,443,432,2607,1,1,1,1,1,0,18076,3040,-508,-566,-607,64
G,1,355,643,439,415,2640,1,1,1,1,1,0,18268,2692,-232,-310,-778,-89
G,1,331,603,471,437,2595,1,1,1,1,1,0,18040,3244,-948,-553,-376,46
G,1,366,618,465,438,2614,1,1,1,1,1,0,18252,2796,-380,-438,-180,-59
G,1,355,587,421,450,2586,1,1,1,1,1,0,17872,3276,-184,-563,-691,-383
G,1,368,593,480,413,2633,1,1,1,1,1,0,17924,3232,-596,-726,-98,312
G,1,330,603,448,426,2606,1,1,1,1,1,0,18012,2984,-712,-872,-433,247
G,1,359,633,459,429,2608,1,1,1,1,1,0,18280,3112,-708,-744,106,152
G,1,339,619,433,455,2630,1,1,1,1,1,0,18124,2932,-244,-841,-22,294
G,1,394,611,454,427,2607,1,1,1,1,1,0,18192,2804,-220,-593,-4,210
G,1,349,614,496,413,2624,1,1,1,1,1,0,18036,3088,-440,-871,-207,79
G,1,319,609,479,433,2633,1,1,1,1,1,0,17952,2968,-196,-78,-264,100
G,1,356,647,475,414,2642,1,1,1,1,1,0,18176,2988,-324,-791,-345,297
G,1,341,609,479,437,2618,1,1,1,1,1,0,18216,2776,-576,-254,39,38
G,1,336,592,489,447,2626,1,1,1,1,1,0,18256,3048,-256,-445,-395,81
G,1,343,605,432,437,2635,1,1,1,1,1,0,18196,3264,-276,-720,-175,221
G,1,352,617,469,400,2597,1,1,1,1,1,0,18368,2768,-116,-734,-24,262
G,1,384,577,464,453,2614,1,1,1,1,1,0,18000,2892,-348,-282,195,163
G,1,341,602,455,435,2613,1,1,1,1,1,0,18212,3028,176,-521,-625,177
G,1,338,581,470,390,2651,1,1,1,1,1,0,17884,2716,-476,-255,132,23
G,1,377,589,507,397,2624,1,1,1,1,1,0,18452,3304,40,-694,-353,178
G,1,400,611,475,433,2605,1,1,1,1,1,0,18192,2964,-564,-668,-266,-52
G,1,304,624,472,397,2640,1,1,1,1,1,0,18160,2816,-48,-192,-114,195
G,1,362,608,480,423,2621,1,1,1,1,1,0,18164,3136,-348,-612,-262,87
G,1,372,636,398,459,2592,1,1,1,1,1,0,18040,2880,-144,-859,11,202
G,1,371,621,496,421,2635,1,1,1,1,1,0,18104,2892,-276,-84,-285,65
G,1,336,631,462,429,2610,1,1,1,1,1,0,18076,3016,-336,-875,-154,192
G,1,370,614,446,432,2608,1,1,1,1,1,0,18368,2576,-68,-162,-636,44
G,1,345,638,421,447,2612,1,1,1,1,1,0,18020,3236,-140,-1013,-41,145
G,1,375,656,437,448,2608,1,1,1,1,1,0,18372,2764,-296,-405,-346,228
G,1,331,613,477,432,2617,1,1,1,1,1,0,17964,2504,-544,-671,-11,48
G,1,400,596,439,455,2604,1,1,1,1,1,0,18000,2964,-44,-205,-233,73
G,1,336,626,432,442,2636,1,1,1,1,1,0,18008,3064,-160,-884,-101,58
G,1,355,617,483,419,2620,1,1,1,1,1,0,18196,2772,-128,-51,-433,24
G,1,339,629,450,460,2598,1,1,1,1,1,0,18092,3128,-572,-781,-258,69
G,1,351,640,435,457,2635,1,1,1,1,1,0,18140,3104,-76,-504,-422,155
G,1,368,622,446,448,2615,1,1,1,1,1,0,18140,3136,-620,-244,96,119
G,1,400,622,459,392,2602,1,1,1,1,1,0,18000,2948,-80,-667,-248,338
G,1,357,621,467,427,2622,1,1,1,1,1,0,18208,2828,-236,-460,9,218
G,1,352,639,464,438,2618,1,1,1,1,1,0,18120,2692,-36,-642,-70,230
G,1,372,605,437,415,2614,1,1,1,1,1,0,18128,2836,-28,-299,-537,12
G,1,341,627,485,421,2598,1,1,1,1,1,0,18216,3020,-256,-1354,278,192
G,1,345,613,457,432,2623,1,1,1,1,1,0,17972,3104,-48,127,-87,6
G,1,326,639,439,406,2629,1,1,1,1,1,0,18152,3276,40,-1117,-310,237
G,1,353,627,445,454,2589,1,1,1,1,1,0,17768,2804,36,122,-115,195
G,1,380,615,455,439,2598,1,1,1,1,1,0,18208,2756,144,-819,-227,154
G,1,313,605,455,445,2621,1,1,1,1,1,0,17900,2940,-80,-409,-155,40
G,1,341,624,492,432,2614,1,1,1,1,1,0,18188,3056,-16,-431,-503,66
G,1,384,623,411,460,2624,1,1,1,1,1,0,18196,2964,-380,-465,-71,16
G,1,349,605,464,423,2626,1,1,1,1,1,0,18192,2812,-156,-495,-267,160
G,1,333,624,448,443,2610,1,1,1,1,1,0,18156,2696,-572,-562,23,-76
G,1,357,592,462,418,2593,1,1,1,1,1,0,17860,2992,64,-763,-335,36
G,1,371,613,432,432,2608,1,1,1,1,1,0,18332,2960,152,-351,-36,71
G,1,320,631,464,422,2617,1,1,1,1,1,0,18076,2748,-480,-545,-442,159
G,1,335,629,447,440,2598,1,1,1,1,1,0,18264,2632,-292,-199,55,-204
G,1,396,603,470,420,2633,1,1,1,1,1,0,18132,3276,-232,-454,158,-337
G,1,355,619,443,426,2602,1,1,1,1,1,0,18196,2948,60,-582,-94,-105
G,1,354,592,479,389,2632,1,1,1,1,1,0,18092,2912,228,-51,-394,-191
G,1,397,569,447,438,2593,1,1,1,1,1,0,18004,2992,-44,-480,-949,-167
G,1,351,591,464,414,2640,1,1,1,1,1,0,18136,3156,-372,-35,-565,-196
G,1,340,580,470,464,2623,1,1,1,1,1,1,18256,3560,-1588,253,-317,-40
G,1,391,611,441,490,2633,1,1,1,1,1,1,17768,3240,-1744,763,-721,-542
G,1,303,618,441,471,2624,1,1,1,1,1,1,17864,4272,-652,-1453,-838,-565
G,1,364,594,462,490,2638,1,1,1,1,1,1,17764,4580,-1032,995,-948,-278
G,1,367,596,450,494,2610,1,1,1,1,1,1,17516,4232,-2044,-1133,-920,-166
G,1,321,585,471,487,2619,1,1,1,1,1,1,17816,4552,-1640,-244,-704,245
G,1,336,601,422,460,2628,1,1,1,1,1,1,17632,3344,-2376,-542,-254,284
G,1,384,590,475,501,2607,1,1,1,1,1,1,17772,4584,-1464,-884,112,260
G,1,361,607,418,499,2629,1,1,1,1,1,1,17780,3776,-1204,-621,-434,406
G,1,325,594,466,470,2635,1,1,1,1,1,1,17824,3488,-1688,-1056,-765,9
G,1,358,581,462,511,2611,1,1,1,1,1,1,17648,3924,-1228,-130,-204,-77
G,1,372,591,448,501,2602,1,1,1,1,1,1,17740,4136,-1440,-1559,-795,-243
G,1,333,630,451,502,2624,1,1,1,1,1,1,17540,4424,-2028,281,-583,-104
G,1,368,595,457,464,2614,1,1,1,1,1,1,17756,4408,-1912,-1150,-321,-120
G,1,353,598,470,491,2610,1,1,1,1,1,1,17868,4540,-1556,-461,-434,226
G,1,361,596,435,495,2630,1,1,1,1,1,1,17844,3960,-1984,-606,-388,324
G,1,307,611,464,475,2633,1,1,1,1,1,1,17772,3956,-1628,-680,-146,-51
G,1,355,591,464,471,2633,1,1,1,1,1,1,17600,3988,-1704,-593,-527,-104
G,1,359,598,418,511,2619,1,1,1,1,1,1,17752,4352,-1412,-489,-262,-176
G,1,345,608,444,511,2624,1,1,1,1,1,1,17652,4308,-1728,275,-394,-303
G,1,314,579,496,481,2596,1,1,1,1,1,1,17564,4836,-1672,-1125,-532,152
G,1,338,606,454,476,2612,1,1,1,1,1,1,17828,4268,-2008,-110,-351,157
G,1,313,586,435,511,2609,1,1,1,1,1,1,17676,4108,-1852,-833,-411,183
G,1,355,614,479,496,2624,1,1,1,1,1,1,17548,4152,-2080,-585,-423,-222
G,1,383,618,439,481,2643,1,1,1,1,1,1,17580,4668,-1820,-303,-403,-27
G,1,349,636,468,495,2645,1,1,1,1,1,1,17556,4652,-1504,-557,-356,-113
G,1,334,631,448,481,2651,1,1,1,1,1,1,17716,4780,-1496,-207,-274,210
G,1,336,574,464,495,2637,1,1,1,1,1,1,17612,4104,-1796,-470,-139,99
G,1,369,600,447,503,2609,1,1,1,1,1,1,17812,4048,-2052,-282,-633,73
G,1,332,595,462,478,2630,1,1,1,1,1,1,17552,4372,-2012,-614,16,-35
G,1,367,587,455,524,2610,1,1,1,1,1,1,17632,4392,-1720,-619,-439,2
G,1,341,583,464,481,2635,1,1,1,1,1,1,17668,4524,-2084,-593,-81,30
G,1,333,595,448,528,2608,1,1,1,1,1,1,17532,4192,-2100,-663,-114,42
G,1,353,612,459,487,2625,1,1,1,1,1,1,17784,4620,-1696,-291,-108,-6
G,1,364,561,481,490,2606,1,1,1,1,1,1,17684,4312,-2056,-65,-172,-25
G,1,374,592,489,483,2604,1,1,1,1,1,1,17796,4624,-2008,-953,-277,206
G,1,333,624,485,478,2614,1,1,1,1,1,1,17660,4448,-2136,-305,212,164
G,1,345,615,464,477,2634,1,1,1,1,1,1,17604,4296,-1776,-616,-265,263
G,1,368,599,455,496,2612,1,1,1,1,1,1,17800,4332,-1380,-461,164,223
G,1,373,596,451,470,2625,1,1,1,1,1,1,17736,4404,-1688,-160,-235,278
G,1,333,579,468,505,2625,1,1,1,1,1,1,17916,4436,-1624,-785,-486,227
G,1,336,606,432,503,2599,1,1,1,1,1,1,17712,4168,-1924,-282,-364,142
G,1,367,623,459,523,2634,1,1,1,1,1,1,18052,4392,-1660,-898,-191,210
G,1,343,606,470,481,2633,1,1,1,1,1,1,17548,4192,-1836,-507,-52,153
G,1,355,570,465,464,2623,1,1,1,1,1,1,17972,4628,-1300,-370,-10,385
G,1,398,621,464,490,2602,1,1,1,1,1,1,17416,4116,-1960,-789,-267,304
G,1,342,583,465,489,2620,1,1,1,1,1,1,17892,4156,-1608,-455,-319,297
G,1,336,595,466,464,2638,1,1,1,1,1,1,17624,3800,-1804,-299,211,162
G,1,365,603,463,511,2611,1,1,1,1,1,1,17696,4272,-1552,-383,15,27
G,1,365,602,502,483,2639,1,1,1,1,1,1,17904,4400,-1452,-386,-400,154
G,1,354,634,461,496,2615,1,1,1,1,1,1,17676,4068,-2068,-616,-936,156
G,1,367,590,469,458,2625,1,1,1,1,1,1,17896,4276,-2164,-732,195,136
G,1,357,608,432,528,2611,1,1,1,1,1,1,17520,3852,-2188,-648,-186,-199
G,1,345,611,448,483,2624,1,1,1,1,1,1,17820,4728,-1284,-504,665,97
G,1,325,631,445,503,2615,1,1,1,1,1,1,17668,4352,-1552,-943,-47,-43
G,1,375,597,467,490,2609,1,1,1,1,1,1,17964,4484,-1300,-332,-666,332
G,1,320,628,448,523,2644,1,1,1,1,1,1,17652,4028,-2044,-597,193,-48
G,1,374,592,489,497,2611,1,1,1,1,1,1,17564,4160,-1684,-558,-565,-53
G,1,368,573,470,496,2614,1,1,1,1,1,1,17760,4364,-1488,91,-75,6
G,1,327,603,400,533,2610,1,1,1,1,1,1,17556,4508,-1584,-1318,-793,170
G,1,289,640,433,459,2636,1,1,1,1,1,1,17860,4660,-1424,104,-146,49
G,1,350,585,495,474,2622,1,1,1,1,1,1,17556,4132,-1856,-1129,-598,107
G,1,369,603,478,494,2625,1,1,1,1,1,1,17824,4252,-1820,164,-492,154
G,1,336,615,453,510,2627,1,1,1,1,1,1,17696,4300,-1672,-1103,-527,170
G,1,384,609,502,464,2622,1,1,1,1,1,1,17576,4252,-1612,-339,-413,-107
G,1,371,614,470,511,2593,1,1,1,1,1,1,17620,4208,-1928,-667,-242,126
G,1,368,637,443,471,2630,1,1,1,1,1,1,17312,4240,-2172,-608,-690,-130
G,1,341,614,460,496,2634,1,1,1,1,1,1,17936,4440,-1724,-1020,131,134
G,1,352,602,485,511,2624,1,1,1,1,1,1,17652,4020,-2012,-464,-79,69
G,1,329,599,496,511,2608,1,1,1,1,1,1,17912,4496,-1488,-621,-74,51
G,1,363,606,475,482,2640,1,1,1,1,1,1,17728,4164,-1548,-430,-438,169
G,1,357,623,464,475,2613,1,1,1,1,1,1,17800,4256,-1732,-468,-558,135
G,1,361,602,479,491,2622,1,1,1,1,1,1,17540,3984,-2720,-585,-446,7
G,1,369,592,447,511,2607,1,1,1,1,1,1,17832,4612,-2040,-954,-404,38
G,1,297,605,495,471,2644,1,1,1,1,1,1,17576,4128,-2280,-605,367,41
G,1,346,624,501,493,2611,1,1,1,1,1,1,17968,4676,-1264,-381,-1463,232
G,1,353,625,449,493,2619,1,1,1,1,1,1,17496,4336,-1756,-993,43,229
G,1,351,624,447,479,2627,1,1,1,1,1,1,17548,4100,-1128,25,-1424,621
G,1,350,593,494,464,2627,1,1,1,1,1,1,17664,4024,-1964,-1119,212,222
G,1,372,616,443,495,2624,1,1,1,1,1,1,17532,4384,-1688,133,-1178,-104
G,1,342,623,443,500,2607,1,1,1,1,1,1,17664,4700,-1796,-1424,-167,148
G,1,379,603,454,467,2623,1,1,1,1,1,1,17288,4188,-1988,-78,-886,-61
G,1,348,599,477,495,2609,1,1,1,1,1,1,17936,4492,-2312,-759,-221,66
G,1,350,608,417,506,2618,1,1,1,1,1,1,17500,4116,-2404,-233,-577,-24
G,1,370,594,448,491,2635,1,1,1,1,1,1,17536,4696,-2000,-338,-539,163
G,1,345,614,503,501,2625,1,1,1,1,1,1,17440,4068,-2500,-836,-48,197
G,1,400,598,448,497,2630,1,1,1,1,1,1,17536,4384,-2228,-329,-326,89
G,1,359,607,448,496,2621,1,1,1,1,1,1,17820,4372,-1912,-716,346,23
G,1,297,617,479,439,2635,1,1,1,1,1,1,17564,4092,-2132,-215,-267,57
G,1,350,617,483,461,2624,1,1,1,1,1,1,17904,4496,-2212,-790,275,190
G,1,384,624,457,491,2624,1,1,1,1,1,1,17560,4224,-2532,-567,-39,146
G,1,368,593,462,497,2618,1,1,1,1,1,1,17772,4660,-1520,-284,43,229
G,1,366,593,478,490,2613,1,1,1,1,1,1,17448,4388,-1664,-855,157,482
G,1,368,576,489,511,2618,1,1,1,1,1,1,17884,4068,-1344,-307,-339,245
G,1,385,631,463,468,2642,1,1,1,1,1,1,17632,3904,-1772,-864,23,167
G,1,370,595,501,487,2619,1,1,1,1,1,1,17956,4388,-1620,-491,-783,-39
G,1,374,609,475,487,2610,1,1,1,1,1,1,17568,4140,-2392,-1108,369,-1
G,1,352,621,462,483,2622,1,1,1,1,1,1,17652,4380,-1992,84,-410,-134
G,1,325,627,474,466,2607,1,1,1,1,1,1,17632,4364,-1976,-1497,-191,254
G,1,322,605,482,469,2636,1,1,1,1,1,1,17424,4344,-2176,768,-453,66
G,1,370,612,441,485,2615,1,1,1,1,1,1,17592,4712,-1952,-1898,25,417
G,1,354,610,464,494,2631,1,1,1,1,1,1,17488,4316,-1660,597,-49,227
G,1,357,601,476,487,2621,1,1,1,1,1,1,18128,4288,-1228,-1502,-58,396
G,1,370,583,443,481,2638,1,1,1,1,1,1,17568,4092,-1608,50,-224,-23
G,1,385,597,464,493,2621,1,1,1,1,1,1,17936,4236,-1392,-493,-757,185
G,1,335,622,477,459,2622,1,1,1,1,1,1,17472,3952,-2092,-491,-409,-210
G,1,378,595,465,490,2603,1,1,1,1,1,1,17768,4568,-2252,-576,-844,-127
G,1,346,614,463,476,2608,1,1,1,1,1,1,17672,4584,-1896,-585,-130,-271
G,1,310,624,453,474,2639,1,1,1,1,1,1,17752,4796,-2012,-262,-319,70
G,1,338,624,455,496,2629,1,1,1,1,1,1,17448,4512,-2108,-748,-92,222
G,1,333,595,448,507,2623,1,1,1,1,1,1,17720,4376,-1672,-5,-357,475
G,1,345,625,448,496,2625,1,1,1,1,1,1,17732,4080,-2108,-1302,-61,410
G,1,339,645,447,498,2631,1,1,1,1,1,1,17632,4032,-1720,313,110,61
G,1,363,627,458,477,2630,1,1,1,1,1,1,17624,5024,396,-958,109,252
G,1,338,641,427,499,2618,1,1,1,1,1,1,17620,4232,-1592,-64,-604,12
G,1,325,609,460,511,2622,1,1,1,1,1,1,18128,4608,-1636,-867,-215,23
G,1,355,597,483,464,2626,1,1,1,1,1,1,17560,3876,-2620,-665,-189,-76
G,1,336,612,443,485,2627,1,1,1,1,1,1,17956,4836,-1372,-434,-12,209
G,1,343,612,466,475,2656,1,1,1,1,1,1,17440,3968,-1652,-760,214,-48
G,1,340,617,479,485,2617,1,1,1,1,1,1,17572,4468,-1412,-284,-635,388
G,1,375,621,502,488,2630,1,1,1,1,1,1,17928,4216,-1740,-587,87,227
G,1,357,622,432,503,2622,1,1,1,1,1,1,17684,4180,-2096,-456,-551,312
G,1,374,621,464,465,2615,1,1,1,1,1,1,18064,4336,-1552,-525,478,114
G,1,371,585,485,485,2581,1,1,1,1,1,1,17292,4092,-1696,-792,-483,191
G,1,374,624,437,483,2639,1,1,1,1,1,1,18328,4436,-988,309,497,5
G,1,372,607,471,450,2661,1,1,1,1,1,1,17320,3752,-2272,-1050,149,-236
G,1,347,602,487,475,2614,1,1,1,1,1,1,17856,4792,-1400,-229,-461,173
G,1,361,600,493,475,2609,1,1,1,1,1,1,17596,4256,-1744,-1029,-257,18
G,1,378,597,496,468,2640,1,1,1,1,1,1,17828,4596,-1616,-261,-306,90
G,1,346,606,447,464,2615,1,1,1,1,1,1,17800,4228,-1844,-755,-131,151
G,1,348,611,448,466,2608,1,1,1,1,1,1,17652,4524,-1532,-255,-422,320
G,1,353,605,477,485,2613,1,1,1,1,1,1,17744,4000,-1824,-651,135,230
G,1,334,604,464,471,2619,1,1,1,1,1,1,17616,4240,-1592,-415,-646,185
G,1,373,624,445,478,2615,1,1,1,1,1,1,17712,4136,-1892,-1028,596,172
G,1,338,606,480,495,2597,1,1,1,1,1,1,17564,4124,-1136,-881,-212,-120
G,1,320,618,493,475,2638,1,1,1,1,1,1,18008,4908,-1236,-558,-306,94
G,1,338,585,448,464,2633,1,1,1,1,1,1,17476,3952,-1712,-893,-457,85
G,1,366,605,462,487,2638,1,1,1,1,1,1,17104,4580,-1564,-160,-204,144
G,1,340,625,448,484,2631,1,1,1,1,1,1,17620,4256,-1152,-1016,-79,214
G,1,368,595,459,496,2622,1,1,1,1,1,1,17772,4376,-1220,242,-675,9
G,1,350,599,471,473,2621,1,1,1,1,1,1,17760,4308,-1896,-1087,288,212
G,1,348,593,432,511,2643,1,1,1,1,1,1,17604,4080,-1548,-191,-890,-204
G,1,311,631,497,480,2640,1,1,1,1,1,1,18024,4508,-1760,-711,481,27
G,1,352,585,486,450,2626,1,1,1,1,1,1,17452,4668,-1596,-560,-670,122
G,1,387,591,433,525,2624,1,1,1,1,1,1,17760,4532,-1596,-502,-63,364
G,1,345,597,437,493,2634,1,1,1,1,1,1,17480,4216,-1760,-352,-685,450
G,1,352,630,461,467,2624,1,1,1,1,1,1,17880,4344,-1780,-668,37,253
G,1,384,607,475,468,2619,1,1,1,1,1,1,17776,3828,-1724,-365,-584,282
G,1,354,642,437,511,2612,1,1,1,1,1,1,18064,4116,-1192,-696,-305,167
G,1,321,631,421,469,2642,1,1,1,1,1,1,17648,4032,-1824,-601,-28,-79
G,1,358,592,477,480,2617,1,1,1,1,1,1,18004,4308,-1224,-680,-431,23
G,1,386,597,447,483,2625,1,1,1,1,1,1,17296,4416,-1780,-1115,-66,-70
G,1,353,615,458,463,2618,1,1,1,1,1,1,17632,4288,-1288,58,-1120,124
G,1,350,605,454,464,2641,1,1,1,1,1,1,17664,4268,-1896,-689,42,-6
G,1,350,579,476,498,2601,1,1,1,1,1,1,17792,4528,-1728,-93,-884,169
G,1,365,618,457,496,2612,1,1,1,1,1,1,17748,4628,-2132,-751,14,76
G,1,336,612,511,461,2645,1,1,1,1,1,1,17904,4364,-1780,209,-430,364
G,1,401,592,538,464,2642,1,1,1,1,1,1,17608,3300,-4428,-267,710,65
G,1,394,625,461,464,2629,1,1,1,1,1,1,18052,3980,-1608,-806,-157,-22
G,1,309,638,455,449,2630,1,1,1,1,1,1,17236,3912,-1968,-419,-12,-278
G,1,353,605,463,473,2637,1,1,1,1,1,1,18068,4836,-1332,-669,-511,262
G,1,401,595,431,496,2585,1,1,1,1,1,1,17356,4064,-2436,-699,1046,-175
G,1,362,631,455,504,2623,1,1,1,1,1,1,18248,4652,-1004,-206,-614,445
G,1,347,645,499,471,2620,1,1,1,1,1,1,17676,4260,-2064,-1122,177,-81
G,1,341,592,453,483,2625,1,1,1,1,1,1,17668,4480,-1296,259,-683,250
G,1,365,624,465,485,2608,1,1,1,1,1,1,17716,4440,-1744,-1215,252,64
G,1,335,610,500,464,2613,1,1,1,1,1,1,17240,4248,-1644,112,-402,98
G,1,361,629,482,460,2629,1,1,1,1,1,1,17720,4344,-1628,-1044,-180,278
G,1,319,604,494,479,2625,1,1,1,1,1,1,17684,4412,-1544,-196,-161,145
G,1,351,611,449,483,2611,1,1,1,1,1,1,17880,4596,-1332,-442,-375,155
G,1,329,599,497,461,2643,1,1,1,1,1,1,17464,4156,-1876,-792,-218,285
G,1,350,592,501,475,2620,1,1,1,1,1,1,17880,4148,-1560,-146,-407,263
G,1,366,637,458,486,2625,1,1,1,1,1,1,17440,4020,-2108,-1028,-139,-223
G,1,319,604,434,483,2640,1,1,1,1,1,1,18084,4496,-1616,7,-41,103
G,1,336,592,493,479,2641,1,1,1,1,1,1,17392,4392,-1876,-1064,-284,120
G,1,368,602,463,496,2622,1,1,1,1,1,1,18048,4080,-1556,81,-558,165
G,1,382,636,466,459,2625,1,1,1,1,1,1,17672,4252,-2296,-1531,187,156
G,1,340,622,468,486,2624,1,1,1,1,1,1,17736,4236,-1656,373,-749,125
