flex_pinky,flex_ring,flex_middle,flex_index,flex_thumb,touch_index,touch_middle,touch_ring,touch_pinky,touch_r,touch_u,ax,ay,az,gx,gy,gz,label,rep,session,day
0.083636364,0.018707483,0.058394161,0.069124424,0.805369128,1,1,1,1,1,0,0.551147461,0.01171875,-0.083862305,-0.016265869,-0.0027771,0.003326416,B,0,2026-08-22_23-06-48,22/08/2026
0,0.013605442,0.058394161,0.267281106,0.483221477,1,1,1,1,1,0,0.55065918,0.014892578,-0.086791992,-0.015167236,-0.006530762,0.004180908,B,0,2026-08-22_23-06-48,22/08/2026
0,0,0,0.179723502,0.33557047,1,1,1,1,1,0,0.553833008,0.020263672,-0.085083008,-0.00793457,-0.010437012,0.005554199,B,0,2026-08-22_23-06-48,22/08/2026
0.210909091,0.151360544,0.408759124,0.433179724,0.805369128,1,1,1,1,1,0,0.553955078,0.017944336,-0.085693359,-0.003326416,-0.010894775,0.005401611,B,0,2026-08-22_23-06-48,22/08/2026
0.358181818,0.011904762,0,0.211981567,0.44295302,1,1,1,1,1,0,0.552856445,0.020019531,-0.089355469,-0.003845215,-0.009552002,0.005340576,B,0,2026-08-22_23-06-48,22/08/2026
0,0.06122449,0.459854015,0.755760369,0.322147651,1,1,1,1,1,0,0.555419922,0.019287109,-0.088745117,-0.007751465,-0.012023926,0.006774902,B,0,2026-08-22_23-06-48,22/08/2026
0,0,0.295620438,0.797235023,0,1,1,1,1,1,0,0.552856445,0.012817383,-0.093139648,-0.012451172,-0.012176514,0.007354736,B,0,2026-08-22_23-06-48,22/08/2026
0,0.025510204,0.419708029,0.811059908,0,1,1,1,1,1,0,0.547607422,0.013549805,-0.08996582,-0.017211914,-0.011535645,0.005401611,B,0,2026-08-22_23-06-48,22/08/2026
0,0.071428571,0.587591241,0.677419355,0,1,1,1,1,1,0,0.552490234,0.012329102,-0.09387207,-0.013031006,-0.00894165,0.00402832,B,0,2026-08-22_23-06-48,22/08/2026
0.007272727,0.130952381,0.5,0.649769585,0.147651007,1,1,1,1,1,0,0.552856445,0.016113281,-0.090087891,-0.006469727,-0.007781982,0.003845215,B,0,2026-08-22_23-06-48,22/08/2026
0,0,0,0.603686636,0,1,1,1,1,1,0,0.555297852,0.010375977,-0.091308594,-0.003814697,-0.006195068,0.002990723,B,0,2026-08-22_23-06-48,22/08/2026
0.069090909,0.079931973,0.350364964,0.161290323,1,1,1,1,1,1,0,0.555908203,0.009643555,-0.092651367,-0.011138916,-0.007598877,0.000946045,B,0,2026-08-22_23-06-48,22/08/2026
0.130909091,0.040816327,0,0,1,1,1,1,1,1,0,0.55065918,0.01550293,-0.092163086,-0.011871338,-0.009490967,0.002716064,B,0,2026-08-22_23-06-48,22/08/2026
0.012727273,0,0,0.073732719,1,1,1,1,1,1,0,0.550048828,0.014526367,-0.0859375,-0.015045166,-0.009094238,0.003540039,B,0,2026-08-22_23-06-48,22/08/2026
0.025454545,0,0,0.147465438,1,1,1,1,1,1,0,0.55065918,0.016845703,-0.091674805,-0.015899658,-0.010253906,0.003295898,B,0,2026-08-22_23-06-48,22/08/2026
0.183636364,0,0,0,1,1,1,1,1,1,0,0.547729492,0.018920898,-0.090698242,-0.008911133,-0.007629395,0.004180908,B,0,2026-08-22_23-06-48,22/08/2026
0.118181818,0.028911565,0,0,0.805369128,1,1,1,1,1,0,0.552368164,0.017456055,-0.088745117,-0.007873535,-0.007629395,0.004241943,B,0,2026-08-22_23-06-48,22/08/2026
0,0,0,0.225806452,1,1,1,1,1,1,0,0.549560547,0.01953125,-0.090209961,-0.01260376,-0.007751465,0.00378418,B,0,2026-08-22_23-06-48,22/08/2026
0,0.015306122,0,0.447004608,0,1,1,1,1,1,0,0.549682617,0.014282227,-0.088745117,-0.011322021,-0.007019043,0.005096436,B,0,2026-08-22_23-06-48,22/08/2026
0.049090909,0,0,0.119815668,0.805369128,1,1,1,1,1,0,0.5546875,0.013427734,-0.092285156,-0.010803223,-0.005767822,0.005310059,B,0,2026-08-22_23-06-48,22/08/2026
0,0,0,0.281105991,0.805369128,1,1,1,1,1,0,0.553588867,0.011108398,-0.088134766,-0.013549805,-0.008270264,0.004699707,B,0,2026-08-22_23-06-48,22/08/2026
0,0.022108844,0.200729927,0.331797235,0,1,1,1,1,1,0,0.552734375,0.017211914,-0.087890625,-0.009460449,-0.007293701,0.003875732,B,0,2026-08-22_23-06-48,22/08/2026
0.032727273,0.035714286,0.062043796,0.253456221,0.456375839,1,1,1,1,1,0,0.555664063,0.009887695,-0.09387207,-0.006988525,-0.006500244,0.003204346,B,0,2026-08-22_23-06-48,22/08/2026
0,0,0,0.294930876,0,1,1,1,1,1,0,0.55090332,0.014160156,-0.093505859,-0.014251709,-0.007598877,0.000396729,B,0,2026-08-22_23-06-48,22/08/2026
0.005454545,0,0.003649635,0.285714286,0.308724832,1,1,1,1,1,0,0.548950195,0.017456055,-0.087036133,-0.012329102,-0.008514404,0.001800537,B,0,2026-08-22_23-06-48,22/08/2026
0.014545455,0.011904762,0.116788321,0.34562212,0.44295302,1,1,1,1,1,0,0.548339844,0.016357422,-0.093017578,-0.008850098,-0.009368896,0.002838135,B,0,2026-08-22_23-06-48,22/08/2026
0.04,0,0.00729927,0.170506912,0.281879195,1,1,1,1,1,0,0.548461914,0.018310547,-0.08996582,-0.011016846,-0.009765625,0.003082275,B,0,2026-08-22_23-06-48,22/08/2026
0.025454545,0,0.03649635,0.152073733,0.456375839,1,1,1,1,1,0,0.549560547,0.021484375,-0.089233398,-0.009887695,-0.009277344,0.00378418,B,0,2026-08-22_23-06-48,22/08/2026
0.009090909,0,0.098540146,0.193548387,0.805369128,1,1,1,1,1,0,0.548217773,0.016845703,-0.090576172,-0.00958252,-0.009552002,0.006347656,B,0,2026-08-22_23-06-48,22/08/2026
0.025454545,0.005102041,0,0.235023041,0.805369128,1,1,1,1,1,0,0.553466797,0.014770508,-0.094604492,-0.008605957,-0.008361816,0.007141113,B,0,2026-08-22_23-06-48,22/08/2026
0.021818182,0,0.076642336,0.207373272,0.44295302,1,1,1,1,1,0,0.551635742,0.012451172,-0.09362793,-0.008453369,-0.006378174,0.006317139,B,0,2026-08-22_23-06-48,22/08/2026
0.021818182,0,0.040145985,0.235023041,0.348993289,1,1,1,1,1,0,0.55065918,0.01184082,-0.090576172,-0.013183594,-0.007232666,0.0050354,B,0,2026-08-22_23-06-48,22/08/2026
0.041818182,0.005102041,0.058394161,0.202764977,0.295302013,1,1,1,1,1,0,0.55456543,0.012207031,-0.091430664,-0.011749268,-0.007843018,0.005126953,B,0,2026-08-22_23-06-48,22/08/2026
0,0,0,0.294930876,0.510067114,1,1,1,1,1,0,0.555908203,0.011962891,-0.091430664,-0.010192871,-0.00579834,0.003417969,B,0,2026-08-22_23-06-48,22/08/2026
0.054545455,0.030612245,0,0.244239631,0.44295302,1,1,1,1,1,0,0.551391602,0.01159668,-0.087646484,-0.008789063,-0.004547119,0.002716064,B,0,2026-08-22_23-06-48,22/08/2026
0,0,0.003649635,0.294930876,0.33557047,1,1,1,1,1,0,0.55456543,0.015869141,-0.088012695,-0.007629395,-0.0050354,0.001312256,B,0,2026-08-22_23-06-48,22/08/2026
0.025454545,0,0,0.119815668,0.805369128,1,1,1,1,1,0,0.553344727,0.014526367,-0.085205078,-0.008544922,-0.005828857,0.002655029,B,0,2026-08-22_23-06-48,22/08/2026
0.038181818,0.034013605,0.032846715,0.304147465,0.483221477,1,1,1,1,1,0,0.5546875,0.011352539,-0.091308594,-0.010528564,-0.006317139,0.002288818,B,0,2026-08-22_23-06-48,22/08/2026
0.061818182,0,0,0.294930876,0.093959732,1,1,1,1,1,0,0.554077148,0.015625,-0.088745117,-0.012939453,-0.008575439,0.002807617,B,0,2026-08-22_23-06-48,22/08/2026
0.036363636,0,0.069343066,0.244239631,0.429530201,1,1,1,1,1,0,0.550415039,0.015625,-0.084106445,-0.01083374,-0.010467529,0.003723145,B,0,2026-08-22_23-06-48,22/08/2026
0.158181818,0.093537415,0.072992701,0.004608295,1,1,1,1,1,1,0,0.542358398,0.132080078,-0.006835938,0.003753662,-0.009521484,0.003082275,B,1,2026-08-22_23-06-48,22/08/2026
0,0,0.503649635,0.230414747,0,1,1,1,1,1,0,0.541503906,0.135009766,-0.013305664,-0.003082275,-0.014648438,0.011566162,B,1,2026-08-22_23-06-48,22/08/2026
0,0,0.452554745,0.294930876,0.067114094,1,1,1,1,1,0,0.544677734,0.131469727,-0.011230469,-0.016815186,-0.012115479,0.019927979,B,1,2026-08-22_23-06-48,22/08/2026
0.014545455,0,0,0,1,1,1,1,1,1,0,0.546386719,0.135742188,-0.007446289,-0.022277832,-0.003936768,0.025665283,B,1,2026-08-22_23-06-48,22/08/2026
0,0,0.116788321,0.566820276,0,1,1,1,1,1,0,0.549560547,0.126586914,0.001586914,-0.018981934,0.005706787,0.028167725,B,1,2026-08-22_23-06-48,22/08/2026
0,0,0,0,0.362416107,1,1,1,1,1,0,0.553710938,0.112915039,0.009399414,-0.010742188,0.009735107,0.026824951,B,1,2026-08-22_23-06-48,22/08/2026
0.02,0,0,0,0.939597315,1,1,1,1,1,0,0.555908203,0.107055664,0.020996094,-0.000305176,0.006561279,0.019073486,B,1,2026-08-22_23-06-48,22/08/2026
0.069090909,0,0.02189781,0.147465438,0.44295302,1,1,1,1,1,0,0.553222656,0.106323242,0.022583008,0.008453369,-0.002471924,0.011962891,B,1,2026-08-22_23-06-48,22/08/2026
0,0,0,0.350230415,0.483221477,1,1,1,1,1,0,0.55078125,0.104370117,0.017456055,0.014099121,-0.00668335,0.004577637,B,1,2026-08-22_23-06-48,22/08/2026
0,0,0,0.304147465,0.026845638,1,1,1,1,1,0,0.554321289,0.107055664,0.014038086,0.007354736,-0.009429932,-0.000396729,B,1,2026-08-22_23-06-48,22/08/2026
0,0,0.040145985,0.32718894,0,1,1,1,1,1,0,0.549072266,0.10949707,0.004638672,-0.004211426,-0.011535645,-0.001373291,B,1,2026-08-22_23-06-48,22/08/2026
0,0,0.02189781,0.156682028,0.375838926,1,1,1,1,1,0,0.549926758,0.115600586,0.007324219,-0.017730713,-0.011993408,0.001434326,B,1,2026-08-22_23-06-48,22/08/2026
0,0,0,0.133640553,0,1,1,1,1,1,0,0.550537109,0.120117188,-0.000976563,-0.020355225,-0.008422852,0.003509521,B,1,2026-08-22_23-06-48,22/08/2026
0,0,0,0.069124424,0.805369128,1,1,1,1,1,0,0.55078125,0.120361328,0.001098633,-0.015960693,-0.00579834,0.004241943,B,1,2026-08-22_23-06-48,22/08/2026
0,0,0,0.138248848,0.322147651,1,1,1,1,1,0,0.547729492,0.122924805,-0.001342773,-0.008270264,-0.006378174,0.003387451,B,1,2026-08-22_23-06-48,22/08/2026
0,0,0,0.294930876,0.805369128,1,1,1,1,1,0,0.546264648,0.123291016,-0.001220703,-0.007568359,-0.002960205,0.000579834,B,1,2026-08-22_23-06-48,22/08/2026
0,0,0,0.225806452,0.805369128,1,1,1,1,1,0,0.548339844,0.119262695,-0.00402832,-0.010620117,-6.10E-05,-0.000640869,B,1,2026-08-22_23-06-48,22/08/2026
0,0,0,0.147465438,0.33557047,1,1,1,1,1,0,0.547363281,0.121948242,-0.000976563,-0.020294189,0.000579834,0.002471924,B,1,2026-08-22_23-06-48,22/08/2026
0,0,0,0.138248848,0.402684564,1,1,1,1,1,0,0.544067383,0.123901367,-0.008056641,-0.027801514,0.003295898,0.006835938,B,1,2026-08-22_23-06-48,22/08/2026
0,0,0,0.147465438,0.402684564,1,1,1,1,1,0,0.542724609,0.124267578,-0.007080078,-0.026916504,0.004455566,0.012237549,B,1,2026-08-22_23-06-48,22/08/2026
0,0,0,0.244239631,0.805369128,1,1,1,1,1,0,0.542724609,0.123779297,-0.00390625,-0.023681641,0.008789063,0.01385498,B,1,2026-08-22_23-06-48,22/08/2026
0,0,0,0.193548387,0.510067114,1,1,1,1,1,0,0.543579102,0.116821289,-0.00402832,-0.020446777,0.009429932,0.011688232,B,1,2026-08-22_23-06-48,22/08/2026
0,0,0,0.115207373,0.805369128,1,1,1,1,1,0,0.544555664,0.112182617,0.003417969,-0.022125244,0.017059326,0.010070801,B,1,2026-08-22_23-06-48,22/08/2026
0,0,0,0.119815668,0.523489933,1,1,1,1,1,0,0.547973633,0.104980469,0.010498047,-0.021484375,0.017181396,0.010192871,B,1,2026-08-22_23-06-48,22/08/2026
0,0,0,0.170506912,0.805369128,1,1,1,1,1,0,0.549926758,0.10559082,0.016357422,-0.021057129,0.013000488,0.008331299,B,1,2026-08-22_23-06-48,22/08/2026
0,0,0,0.294930876,0.536912752,1,1,1,1,1,0,0.549926758,0.102539063,0.026489258,-0.017730713,0.009216309,0.004272461,B,1,2026-08-22_23-06-48,22/08/2026
0,0,0,0.294930876,0.187919463,1,1,1,1,1,0,0.547607422,0.103759766,0.0234375,-0.012908936,0.003875732,-0.000976563,B,1,2026-08-22_23-06-48,22/08/2026
0,0,0.040145985,0.165898618,0.402684564,1,1,1,1,1,0,0.55078125,0.108032227,0.01953125,-0.006958008,0.00390625,-0.006469727,B,1,2026-08-22_23-06-48,22/08/2026
0,0,0,0.032258065,0.510067114,1,1,1,1,1,0,0.550048828,0.106811523,0.021972656,-0.006988525,0.000946045,-0.008483887,B,1,2026-08-22_23-06-48,22/08/2026
0,0,0,0.248847926,0.805369128,1,1,1,1,1,0,0.551635742,0.112060547,0.021850586,-0.011230469,-0.003143311,-0.009887695,B,1,2026-08-22_23-06-48,22/08/2026
0,0,0.01459854,0.202764977,0.147651007,1,1,1,1,1,0,0.549072266,0.119628906,0.018676758,-0.014373779,-0.002288818,-0.007843018,B,1,2026-08-22_23-06-48,22/08/2026
0,0,0,0.235023041,0.268456376,1,1,1,1,1,0,0.545898438,0.127319336,0.017578125,-0.011077881,0.00100708,-0.00567627,B,1,2026-08-22_23-06-48,22/08/2026
0,0,0,0.184331797,0.805369128,1,1,1,1,1,0,0.549072266,0.124511719,0.021118164,-0.004669189,0.00378418,-0.002929688,B,1,2026-08-22_23-06-48,22/08/2026
0,0,0,0.239631336,0.429530201,1,1,1,1,1,0,0.548339844,0.123046875,0.022094727,0.001190186,0.001342773,-0.003387451,B,1,2026-08-22_23-06-48,22/08/2026
0,0,0,0.221198157,0.805369128,1,1,1,1,1,0,0.548828125,0.120117188,0.020751953,0.002532959,-0.000671387,-0.00390625,B,1,2026-08-22_23-06-48,22/08/2026
0,0,0.051094891,0.161290323,0.348993289,1,1,1,1,1,0,0.547729492,0.119995117,0.019287109,-0.003265381,-0.006347656,-0.003936768,B,1,2026-08-22_23-06-48,22/08/2026
0.050909091,0,0,0.276497696,0.939597315,1,1,1,1,1,0,0.54699707,0.122436523,0.021972656,-0.01184082,-0.00881958,-0.001495361,B,1,2026-08-22_23-06-48,22/08/2026
0,0,0,0.170506912,0.429530201,1,1,1,1,1,0,0.545288086,0.126220703,0.020385742,-0.014587402,-0.010375977,0.002471924,B,1,2026-08-22_23-06-48,22/08/2026
0.005454545,0,0,0.101382488,0.510067114,1,1,1,1,1,0,0.542114258,0.127807617,0.019287109,-0.008422852,-0.008544922,0.003082275,B,1,2026-08-22_23-06-48,22/08/2026
0.047272727,0,0,0.262672811,0.510067114,1,1,1,1,1,0,0.543823242,0.123413086,0.013305664,-0.000366211,-0.008422852,0.002197266,B,1,2026-08-22_23-06-48,22/08/2026
0.054545455,0,0,0.30875576,0.322147651,1,1,1,1,1,0,0.547973633,0.087890625,-0.058349609,-0.006225586,-0.007202148,0.00668335,B,2,2026-08-22_23-06-48,22/08/2026
0.010909091,1,0.160583942,0.267281106,0,1,1,1,1,1,0,0.551391602,0.088867188,-0.061157227,-0.010620117,-0.011779785,0.0078125,B,2,2026-08-22_23-06-48,22/08/2026
0.041818182,0,0.010948905,0.225806452,0.429530201,1,1,1,1,1,0,0.545532227,0.091796875,-0.057983398,-0.010498047,-0.010742188,0.007873535,B,2,2026-08-22_23-06-48,22/08/2026
0.067272727,0,0,0.30875576,0.536912752,1,1,1,1,1,0,0.550292969,0.087524414,-0.057617188,-0.007446289,-0.004974365,0.007904053,B,2,2026-08-22_23-06-48,22/08/2026
0,0,0,0.179723502,0.348993289,1,1,1,1,1,0,0.547973633,0.085571289,-0.061767578,-0.012451172,-0.008056641,0.004699707,B,2,2026-08-22_23-06-48,22/08/2026
0,0,0,0.271889401,0.44295302,1,1,1,1,1,0,0.551269531,0.083496094,-0.054443359,-0.014526367,-0.010070801,0.003204346,B,2,2026-08-22_23-06-48,22/08/2026
0,0,0,0.147465438,0.966442953,1,1,1,1,1,0,0.549072266,0.083740234,-0.062011719,-0.014343262,-0.008789063,0.003295898,B,2,2026-08-22_23-06-48,22/08/2026
0,0,0,0.156682028,0.134228188,1,1,1,1,1,0,0.551879883,0.082641602,-0.056030273,-0.01348877,-0.004760742,0.004547119,B,2,2026-08-22_23-06-48,22/08/2026
0.009090909,0,0.087591241,0.285714286,0.147651007,1,1,1,1,1,0,0.551513672,0.081542969,-0.056396484,-0.00982666,-0.003723145,0.001983643,B,2,2026-08-22_23-06-48,22/08/2026
0.069090909,0,0.040145985,0.30875576,0.805369128,1,1,1,1,1,0,0.55078125,0.089233398,-0.052978516,0.004211426,-0.003570557,-0.001586914,B,2,2026-08-22_23-06-48,22/08/2026
0,0,0,0.152073733,0.416107383,1,1,1,1,1,0,0.548217773,0.082763672,-0.0546875,0.010284424,-0.007293701,-0.004638672,B,2,2026-08-22_23-06-48,22/08/2026
0,1,0,0.294930876,0.161073826,1,1,1,1,1,0,0.549438477,0.083984375,-0.049682617,-0.002197266,-0.00958252,-0.006011963,B,2,2026-08-22_23-06-48,22/08/2026
0,0,0,0.511520737,0.979865772,1,1,1,1,1,0,0.545043945,0.092407227,-0.055419922,-0.00491333,-0.004516602,-0.00390625,B,2,2026-08-22_23-06-48,22/08/2026
0.010909091,0,0,0.147465438,0.362416107,1,1,1,1,1,0,0.547729492,0.084716797,-0.053344727,-0.005493164,-0.003997803,-0.001281738,B,2,2026-08-22_23-06-48,22/08/2026
0.067272727,0,0,0.124423963,0.805369128,1,1,1,1,1,0,0.55078125,0.090332031,-0.067749023,-0.008514404,-0.007324219,0.000488281,B,2,2026-08-22_23-06-48,22/08/2026
0.047272727,0,0,0.281105991,0.926174497,1,1,1,1,1,0,0.548828125,0.09387207,-0.057373047,-0.013397217,-0.008178711,0.002380371,B,2,2026-08-22_23-06-48,22/08/2026
0.003636364,0.43707483,0,0.294930876,0.429530201,1,1,1,1,1,0,0.548095703,0.095581055,-0.062011719,-0.011688232,-0.00692749,0.004882813,B,2,2026-08-22_23-06-48,22/08/2026
0,0.862244898,0,0.33640553,0.174496644,1,1,1,1,1,0,0.549804688,0.097290039,-0.059570313,-0.008758545,-0.005157471,0.006988525,B,2,2026-08-22_23-06-48,22/08/2026
0.069090909,0.947278912,0,0.271889401,0.805369128,1,1,1,1,1,0,0.552856445,0.090454102,-0.060791016,-0.0078125,-0.005523682,0.009429932,B,2,2026-08-22_23-06-48,22/08/2026
0.018181818,0.904761905,0.058394161,0.400921659,0.805369128,1,1,1,1,1,0,0.553100586,0.089599609,-0.060180664,-0.011413574,-0.00881958,0.009521484,B,2,2026-08-22_23-06-48,22/08/2026
0,0,0,0.423963134,0.805369128,1,1,1,1,1,0,0.549682617,0.083862305,-0.060913086,-0.008239746,-0.007904053,0.007232666,B,2,2026-08-22_23-06-48,22/08/2026
0,0,0,0.341013825,0.483221477,1,1,1,1,1,0,0.548217773,0.078979492,-0.057495117,-0.010253906,-0.00567627,0.005249023,B,2,2026-08-22_23-06-48,22/08/2026
0.025454545,0,0.076642336,0.442396313,0.348993289,1,1,1,1,1,0,0.549682617,0.083251953,-0.056762695,-0.013885498,-0.007324219,0.003173828,B,2,2026-08-22_23-06-48,22/08/2026
0,0,0,0.3640553,0.805369128,1,1,1,1,1,0,0.544921875,0.084716797,-0.054077148,-0.010894775,-0.007659912,0.00402832,B,2,2026-08-22_23-06-48,22/08/2026
0.054545455,0,0,0.285714286,0.402684564,1,1,1,1,1,0,0.544311523,0.086303711,-0.055908203,-0.007385254,-0.007843018,0.004577637,B,2,2026-08-22_23-06-48,22/08/2026
0,0,0,0.290322581,0.389261745,1,1,1,1,1,0,0.547607422,0.084472656,-0.057250977,-0.011688232,-0.008239746,0.002960205,B,2,2026-08-22_23-06-48,22/08/2026
0.063636364,0,0.127737226,0.294930876,0.241610738,1,1,1,1,1,0,0.550048828,0.087768555,-0.055664063,-0.014434814,-0.008483887,0.005554199,B,2,2026-08-22_23-06-48,22/08/2026
0,0,0.02189781,0.294930876,0.348993289,1,1,1,1,1,0,0.549072266,0.090332031,-0.053466797,-0.012329102,-0.00692749,0.006195068,B,2,2026-08-22_23-06-48,22/08/2026
0.007272727,0,0.164233577,0.147465438,0.805369128,1,1,1,1,1,0,0.553100586,0.088500977,-0.058105469,-0.00869751,-0.006622314,0.004699707,B,2,2026-08-22_23-06-48,22/08/2026
0.007272727,0,0,0.488479263,0.805369128,1,1,1,1,1,0,0.548583984,0.088256836,-0.06262207,-0.005279541,-0.007843018,0.003570557,B,2,2026-08-22_23-06-48,22/08/2026
0.067272727,0,0,0.244239631,0.389261745,1,1,1,1,1,0,0.552612305,0.083251953,-0.058959961,-0.008331299,-0.009124756,0.003448486,B,2,2026-08-22_23-06-48,22/08/2026
0,0,0,0.410138249,0.805369128,1,1,1,1,1,0,0.549804688,0.088256836,-0.054321289,-0.00994873,-0.007720947,0.003417969,B,2,2026-08-22_23-06-48,22/08/2026
0.034545455,0,0,0.235023041,0.805369128,1,1,1,1,1,0,0.548706055,0.08581543,-0.057861328,-0.010498047,-0.005737305,0.005889893,B,2,2026-08-22_23-06-48,22/08/2026
0.054545455,0,0,0.382488479,0.389261745,1,1,1,1,1,0,0.549560547,0.083374023,-0.059814453,-0.0105896,-0.006286621,0.006744385,B,2,2026-08-22_23-06-48,22/08/2026
0,0,0,0.414746544,0.805369128,1,1,1,1,1,0,0.54699707,0.085327148,-0.052368164,-0.010314941,-0.006622314,0.007263184,B,2,2026-08-22_23-06-48,22/08/2026
0.029090909,0,0,0.202764977,0.093959732,1,1,1,1,1,0,0.545532227,0.089233398,-0.056762695,-0.003479004,-0.008026123,0.005859375,B,2,2026-08-22_23-06-48,22/08/2026
0,0,0,0.253456221,0.201342282,1,1,1,1,1,0,0.542602539,0.082397461,-0.05871582,-0.000183105,-0.007232666,0.004241943,B,2,2026-08-22_23-06-48,22/08/2026
0,0,0,0.34562212,0.805369128,1,1,1,1,1,0,0.546020508,0.083618164,-0.054443359,-0.001251221,-0.007019043,0.005432129,B,2,2026-08-22_23-06-48,22/08/2026
0,0,0,0.442396313,0.939597315,1,1,1,1,1,0,0.544799805,0.090332031,-0.064941406,-0.001831055,-0.009399414,0.007171631,B,2,2026-08-22_23-06-48,22/08/2026
0,0,0,0.391705069,0.912751678,1,1,1,1,1,0,0.545288086,0.118896484,-0.070800781,0.044555664,-0.007232666,0.014190674,B,2,2026-08-22_23-06-48,22/08/2026
0,0.010204082,0.328467153,0.34562212,1,1,1,1,1,1,0,0.552368164,0.100341797,-0.03112793,-0.006896973,-0.008666992,0.006713867,B,3,2026-08-22_23-06-48,22/08/2026
0,0,0,0.68202765,0,1,1,1,1,1,0,0.548583984,0.094360352,-0.030395508,-0.008789063,-0.008331299,0.005584717,B,3,2026-08-22_23-06-48,22/08/2026
0,0,0,0.387096774,1,1,1,1,1,1,0,0.547363281,0.095825195,-0.027587891,-0.017150879,-0.014465332,0.002166748,B,3,2026-08-22_23-06-48,22/08/2026
0.003636364,0,0,0.562211982,0,1,1,1,1,1,0,0.545898438,0.09765625,-0.029174805,-0.011810303,-0.014190674,0.000518799,B,3,2026-08-22_23-06-48,22/08/2026
0.007272727,0,0,0.373271889,0.832214765,1,1,1,1,1,0,0.545288086,0.095581055,-0.036254883,-0.010070801,-0.014801025,0.000732422,B,3,2026-08-22_23-06-48,22/08/2026
0,0,0,0.129032258,0.979865772,1,1,1,1,1,0,0.541503906,0.103759766,-0.033081055,-0.009460449,-0.012695313,0.001953125,B,3,2026-08-22_23-06-48,22/08/2026
0,0,0.324817518,0.161290323,0.805369128,1,1,1,1,1,0,0.544189453,0.103149414,-0.036376953,-0.010345459,-0.010070801,0.003387451,B,3,2026-08-22_23-06-48,22/08/2026
0,0,0,0.202764977,0.805369128,1,1,1,1,1,0,0.546630859,0.101806641,-0.036743164,-0.012359619,-0.00970459,0.002868652,B,3,2026-08-22_23-06-48,22/08/2026
0,0,0,0.387096774,0.375838926,1,1,1,1,1,0,0.548950195,0.098754883,-0.026000977,-0.007080078,-0.010803223,0.003601074,B,3,2026-08-22_23-06-48,22/08/2026
0.007272727,0,0,0.207373272,0.147651007,1,1,1,1,1,0,0.555786133,0.098144531,-0.027099609,-0.004394531,-0.016906738,0.002044678,B,3,2026-08-22_23-06-48,22/08/2026
0.065454545,0,0.040145985,0.32718894,0.496644295,1,1,1,1,1,0,0.553955078,0.098999023,-0.041503906,-0.013000488,-0.020721436,-0.000366211,B,3,2026-08-22_23-06-48,22/08/2026
0,0,0,0.493087558,0.805369128,1,1,1,1,1,0,0.549072266,0.10559082,-0.034545898,-0.015808105,-0.0206604,0.000854492,B,3,2026-08-22_23-06-48,22/08/2026
0,0,0,0.33640553,1,1,1,1,1,1,0,0.552856445,0.112670898,-0.045898438,-0.00958252,-0.014526367,0.003112793,B,3,2026-08-22_23-06-48,22/08/2026
0.009090909,0,0,0.368663594,0.375838926,1,1,1,1,1,0,0.553710938,0.112182617,-0.043457031,-0.006835938,-0.012420654,0.003753662,B,3,2026-08-22_23-06-48,22/08/2026
0,0,0,0.419354839,0.147651007,1,1,1,1,1,0,0.551147461,0.110839844,-0.042724609,-0.005401611,-0.007507324,0.005645752,B,3,2026-08-22_23-06-48,22/08/2026
0,0,0,0.230414747,0.805369128,1,1,1,1,1,0,0.553588867,0.104003906,-0.04284668,-0.004852295,-0.007537842,0.009063721,B,3,2026-08-22_23-06-48,22/08/2026
0,0,0,0.064516129,0.523489933,1,1,1,1,1,0,0.549316406,0.10144043,-0.036865234,-0.003387451,-0.00692749,0.008850098,B,3,2026-08-22_23-06-48,22/08/2026
0.067272727,0,0.058394161,0.096774194,0.241610738,1,1,1,1,1,0,0.547729492,0.090942383,-0.034912109,-0.013366699,-0.011993408,0.006072998,B,3,2026-08-22_23-06-48,22/08/2026
0,0,0,0.262672811,0.469798658,1,1,1,1,1,0,0.544067383,0.09765625,-0.037963867,-0.020874023,-0.011932373,0.003143311,B,3,2026-08-22_23-06-48,22/08/2026
0,0,0,0.216589862,0.953020134,1,1,1,1,1,0,0.543945313,0.097900391,-0.036254883,-0.017486572,-0.012908936,0.00402832,B,3,2026-08-22_23-06-48,22/08/2026
0,0,0,0.175115207,0.979865772,1,1,1,1,1,0,0.543945313,0.099121094,-0.036743164,-0.014556885,-0.011169434,0.004150391,B,3,2026-08-22_23-06-48,22/08/2026
0.021818182,0,0,0.216589862,0.456375839,1,1,1,1,1,0,0.548950195,0.101196289,-0.045288086,-0.011871338,-0.009338379,0.002685547,B,3,2026-08-22_23-06-48,22/08/2026
0,0,0,0.235023041,0.966442953,1,1,1,1,1,0,0.547851563,0.103515625,-0.042480469,-0.021240234,-0.007049561,0.001831055,B,3,2026-08-22_23-06-48,22/08/2026
0,0,0,0.281105991,0.805369128,1,1,1,1,1,0,0.547973633,0.106445313,-0.036987305,-0.01864624,-0.010009766,0.006103516,B,3,2026-08-22_23-06-48,22/08/2026
0,0,0,0.032258065,0.469798658,1,1,1,1,1,0,0.547973633,0.106567383,-0.041259766,-0.012664795,-0.005187988,0.00869751,B,3,2026-08-22_23-06-48,22/08/2026
0,0,0,0.119815668,0.845637584,1,1,1,1,1,0,0.547363281,0.100952148,-0.042114258,-0.01272583,-0.004516602,0.007629395,B,3,2026-08-22_23-06-48,22/08/2026
0,0,0.01459854,0.147465438,0.295302013,1,1,1,1,1,0,0.558227539,0.095336914,-0.034423828,-0.014251709,-0.005981445,0.003540039,B,3,2026-08-22_23-06-48,22/08/2026
0.221818182,0,0,0.115207373,0.818791946,1,1,1,1,1,0,0.555053711,0.098022461,-0.030761719,-0.012237549,-0.012664795,0.001464844,B,3,2026-08-22_23-06-48,22/08/2026
0,0,0,0.059907834,0.295302013,1,1,1,1,1,0,0.55065918,0.094970703,-0.030273438,-0.013092041,-0.016082764,-0.002593994,B,3,2026-08-22_23-06-48,22/08/2026
0,0,0,0,0.402684564,1,1,1,1,1,0,0.550292969,0.102294922,-0.036010742,-0.015319824,-0.020568848,-0.003204346,B,3,2026-08-22_23-06-48,22/08/2026
0.185454545,0.161564626,0.45620438,0,1,1,1,1,1,1,0,0.546386719,0.106323242,-0.045410156,-0.012664795,-0.018798828,-0.003082275,B,3,2026-08-22_23-06-48,22/08/2026
0,0.011904762,0.740875912,0.447004608,0,1,1,1,1,1,0,0.545776367,0.110717773,-0.041625977,-0.004699707,-0.019866943,0,B,3,2026-08-22_23-06-48,22/08/2026
0.087272727,0,0,0,1,1,1,1,1,1,0,0.539916992,0.10546875,-0.046264648,-0.005340576,-0.01763916,0.000946045,B,3,2026-08-22_23-06-48,22/08/2026
0.316363636,0,0,0,1,1,1,1,1,1,0,0.541503906,0.108764648,-0.046386719,-0.011779785,-0.013641357,9.16E-05,B,3,2026-08-22_23-06-48,22/08/2026
0.034545455,0,0,0,0.899328859,1,1,1,1,1,0,0.544921875,0.109130859,-0.047119141,-0.015411377,-0.013946533,0.001464844,B,3,2026-08-22_23-06-48,22/08/2026
0.129090909,0,0,1,0,1,1,1,1,1,0,0.552246094,0.108154297,-0.042236328,-0.016906738,-0.016448975,0.006530762,B,3,2026-08-22_23-06-48,22/08/2026
0,0,0.062043796,0.98156682,0,1,1,1,1,1,0,0.548583984,0.103759766,-0.040893555,-0.013824463,-0.014923096,0.009490967,B,3,2026-08-22_23-06-48,22/08/2026
0,0,0,0.617511521,0,1,1,1,1,1,0,0.551025391,0.096435547,-0.040039063,-0.015625,-0.014923096,0.009002686,B,3,2026-08-22_23-06-48,22/08/2026
0,0,0,0.516129032,0,1,1,1,1,1,0,0.548095703,0.098144531,-0.036132813,-0.020019531,-0.01473999,0.005462646,B,3,2026-08-22_23-06-48,22/08/2026
0.038181818,0.020408163,0.401459854,0.30875576,0,1,1,1,1,1,0,0.547607422,0.098144531,-0.044555664,-0.01675415,-0.011993408,0.004333496,B,3,2026-08-22_23-06-48,22/08/2026
0,1,0,1,0.805369128,1,1,1,1,1,0,0.536865234,0.150024414,-0.050415039,-0.002838135,-0.00994873,-0.013214111,B,4,2026-08-22_23-06-48,22/08/2026
0.407272727,1,0.408759124,1,0.429530201,1,1,1,1,1,0,0.532348633,0.152954102,-0.044189453,0.001068115,-0.004760742,-0.01071167,B,4,2026-08-22_23-06-48,22/08/2026
0.101818182,1,0.591240876,1,0,1,1,1,1,1,0,0.537353516,0.151611328,-0.044311523,0.001190186,0.001495361,-0.00680542,B,4,2026-08-22_23-06-48,22/08/2026
0.121818182,1,0,1,1,1,1,1,1,1,0,0.536010742,0.150756836,-0.046386719,-0.000183105,0.00189209,-0.005462646,B,4,2026-08-22_23-06-48,22/08/2026
0,1,0.755474453,1,0,1,1,1,1,1,0,0.538818359,0.149047852,-0.037353516,-0.002532959,0.001434326,-0.001251221,B,4,2026-08-22_23-06-48,22/08/2026
0.28,1,0,1,0,1,1,1,1,1,0,0.533813477,0.14831543,-0.03894043,-0.009155273,-0.002105713,-0.001098633,B,4,2026-08-22_23-06-48,22/08/2026
0.241818182,1,0,1,0,1,1,1,1,1,0,0.532470703,0.147827148,-0.034423828,-0.016876221,-0.004943848,0.000671387,B,4,2026-08-22_23-06-48,22/08/2026
0.109090909,1,0,1,0.818791946,1,1,1,1,1,0,0.53137207,0.150024414,-0.039672852,-0.01348877,-0.005218506,0.003875732,B,4,2026-08-22_23-06-48,22/08/2026
0.24,1,0,1,0,1,1,1,1,1,0,0.533935547,0.149536133,-0.032226563,-0.006225586,-0.007873535,0.005065918,B,4,2026-08-22_23-06-48,22/08/2026
0.134545455,1,0,1,0,1,1,1,1,1,0,0.532348633,0.148803711,-0.037475586,-0.006072998,-0.010803223,0.004486084,B,4,2026-08-22_23-06-48,22/08/2026
0,1,0,1,0.939597315,1,1,1,1,1,0,0.538085938,0.150634766,-0.037475586,-0.008209229,-0.010742188,0.005737305,B,4,2026-08-22_23-06-48,22/08/2026
0.047272727,1,0,1,1,1,1,1,1,1,0,0.532714844,0.153442383,-0.040039063,-0.005096436,-0.011962891,0.010009766,B,4,2026-08-22_23-06-48,22/08/2026
0,1,0,1,0,1,1,1,1,1,0,0.537841797,0.146728516,-0.038696289,-0.000488281,-0.012481689,0.01260376,B,4,2026-08-22_23-06-48,22/08/2026
0,1,0,1,0.805369128,1,1,1,1,1,0,0.534667969,0.141357422,-0.041259766,-0.00289917,-0.014251709,0.00982666,B,4,2026-08-22_23-06-48,22/08/2026
0,1,0.302919708,1,0.805369128,1,1,1,1,1,0,0.537597656,0.139770508,-0.041137695,-0.007110596,-0.013183594,0.00592041,B,4,2026-08-22_23-06-48,22/08/2026
0,1,0,1,0.510067114,1,1,1,1,1,0,0.537719727,0.14050293,-0.039794922,-0.008544922,-0.015625,0.00567627,B,4,2026-08-22_23-06-48,22/08/2026
0,1,0,1,0.859060403,1,1,1,1,1,0,0.540161133,0.14440918,-0.041870117,-0.005157471,-0.014221191,0.00567627,B,4,2026-08-22_23-06-48,22/08/2026
0,1,0,1,0.939597315,1,1,1,1,1,0,0.540771484,0.138305664,-0.053466797,-0.004394531,-0.010681152,0.00479126,B,4,2026-08-22_23-06-48,22/08/2026
0.021818182,1,0.025547445,1,0.228187919,1,1,1,1,1,0,0.544311523,0.141845703,-0.050415039,-0.006866455,-0.008636475,0.003662109,B,4,2026-08-22_23-06-48,22/08/2026
0,1,0.018248175,1,0,1,1,1,1,1,0,0.544799805,0.143798828,-0.050537109,-0.009429932,-0.006469727,0.0050354,B,4,2026-08-22_23-06-48,22/08/2026
0,1,0,1,0.510067114,1,1,1,1,1,0,0.543334961,0.144287109,-0.045654297,-0.011413574,-0.00793457,0.007324219,B,4,2026-08-22_23-06-48,22/08/2026
0,1,0,1,0.805369128,1,1,1,1,1,0,0.544067383,0.142333984,-0.042358398,-0.010894775,-0.005584717,0.008087158,B,4,2026-08-22_23-06-48,22/08/2026
0,1,0.091240876,1,0.201342282,1,1,1,1,1,0,0.541381836,0.144287109,-0.041748047,-0.008117676,-0.00579834,0.005157471,B,4,2026-08-22_23-06-48,22/08/2026
0,1,0,1,0.805369128,1,1,1,1,1,0,0.5390625,0.142333984,-0.043334961,-0.004211426,-0.004516602,0.001220703,B,4,2026-08-22_23-06-48,22/08/2026
0,1,0,1,0.348993289,1,1,1,1,1,0,0.540405273,0.140136719,-0.048583984,-0.002746582,-0.005096436,0.00088501,B,4,2026-08-22_23-06-48,22/08/2026
0,1,0.058394161,1,0.805369128,1,1,1,1,1,0,0.542724609,0.137329102,-0.042236328,-0.005889893,-0.010162354,0.000518799,B,4,2026-08-22_23-06-48,22/08/2026
0.009090909,1,0,1,0.805369128,1,1,1,1,1,0,0.534912109,0.137329102,-0.042724609,-0.00869751,-0.011566162,0.001831055,B,4,2026-08-22_23-06-48,22/08/2026
0,1,0.047445255,1,0.510067114,1,1,1,1,1,0,0.535522461,0.142333984,-0.045898438,-0.01071167,-0.011199951,0.000854492,B,4,2026-08-22_23-06-48,22/08/2026
0,1,0,1,0.805369128,1,1,1,1,1,0,0.535400391,0.145629883,-0.042602539,-0.006835938,-0.009216309,-0.001220703,B,4,2026-08-22_23-06-48,22/08/2026
0,1,0.03649635,1,0.429530201,1,1,1,1,1,0,0.539306641,0.141601563,-0.050170898,-0.001800537,-0.006134033,-0.001617432,B,4,2026-08-22_23-06-48,22/08/2026
0.04,1,0.010948905,1,0.389261745,1,1,1,1,1,0,0.537841797,0.147827148,-0.047485352,-0.002471924,-0.006866455,-0.000640869,B,4,2026-08-22_23-06-48,22/08/2026
0.02,0,0.054744526,1,0.214765101,1,1,1,1,1,0,0.537231445,0.144287109,-0.047119141,-0.006866455,-0.004943848,0.002197266,B,4,2026-08-22_23-06-48,22/08/2026
0,0,0,1,0.805369128,1,1,1,1,1,0,0.536132813,0.146606445,-0.046508789,-0.010925293,-0.004547119,0.003051758,B,4,2026-08-22_23-06-48,22/08/2026
0,0,0,1,0.805369128,1,1,1,1,1,0,0.540649414,0.147583008,-0.041870117,-0.005493164,-0.00302124,0.003845215,B,4,2026-08-22_23-06-48,22/08/2026
0.005454545,1,0.091240876,1,0.389261745,1,1,1,1,1,0,0.536621094,0.144775391,-0.041992188,-0.007476807,-0.005126953,0.003448486,B,4,2026-08-22_23-06-48,22/08/2026
0.049090909,1,0.156934307,1,0.375838926,1,1,1,1,1,0,0.541870117,0.145263672,-0.044555664,-0.007568359,-0.008575439,0.00402832,B,4,2026-08-22_23-06-48,22/08/2026
0,1,0,1,0.201342282,1,1,1,1,1,0,0.537963867,0.14465332,-0.042358398,-0.003356934,-0.013397217,0.005157471,B,4,2026-08-22_23-06-48,22/08/2026
0,1,0,1,0.805369128,1,1,1,1,1,0,0.533935547,0.148681641,-0.050537109,-0.00378418,-0.008239746,0.004516602,B,4,2026-08-22_23-06-48,22/08/2026
0.007272727,1,0,1,0.805369128,1,1,1,1,1,0,0.533935547,0.146606445,-0.043823242,-0.008300781,-0.007781982,0.006530762,B,4,2026-08-22_23-06-48,22/08/2026
0,0,0.01459854,1,0.33557047,1,1,1,1,1,0,0.53527832,0.139160156,-0.046508789,-0.009063721,-0.006103516,0.007324219,B,4,2026-08-22_23-06-48,22/08/2026
0.943636364,0.835034014,0.875912409,0.760368664,0.174496644,1,1,1,1,1,0,0.524414063,0.127075195,0.140136719,-0.003448486,-0.000946045,0.007476807,A,0,2026-08-22_23-06-48,22/08/2026
1,0.763605442,0.99270073,0.764976959,0.268456376,1,1,1,1,1,0,0.52722168,0.130493164,0.15234375,-0.001190186,0.001251221,0.007568359,A,0,2026-08-22_23-06-48,22/08/2026
1,0.845238095,0.974452555,0.907834101,0,1,1,1,1,1,0,0.526245117,0.126708984,0.150268555,-0.001831055,0.000976563,0.007843018,A,0,2026-08-22_23-06-48,22/08/2026
0.910909091,0.892857143,0.879562044,0.903225806,0.134228188,1,1,1,1,1,0,0.52746582,0.122558594,0.159179688,-0.00402832,-0.000274658,0.004364014,A,0,2026-08-22_23-06-48,22/08/2026
0.907272727,0.925170068,0.875912409,1,0.147651007,1,1,1,1,1,0,0.524780273,0.127075195,0.159912109,-0.008056641,-0.001678467,6.10E-05,A,0,2026-08-22_23-06-48,22/08/2026
1,0.818027211,1,0.741935484,0,1,1,1,1,1,0,0.524658203,0.135009766,0.153442383,-0.007202148,-0.002563477,-0.001281738,A,0,2026-08-22_23-06-48,22/08/2026
0.912727273,0.906462585,0.813868613,1,0.147651007,1,1,1,1,1,0,0.521606445,0.136352539,0.154907227,-0.007507324,-0.002227783,0.000701904,A,0,2026-08-22_23-06-48,22/08/2026
0.927272727,0.921768707,0.791970803,1,0.362416107,1,1,1,1,1,0,0.518554688,0.139770508,0.158447266,-0.003845215,0.000732422,0.003540039,A,0,2026-08-22_23-06-48,22/08/2026
1,0.852040816,0.759124088,1,0.295302013,1,1,1,1,1,0,0.52355957,0.133422852,0.166015625,-0.000579834,-0.004180908,0.007385254,A,0,2026-08-22_23-06-48,22/08/2026
1,0.833333333,1,0.751152074,0.33557047,1,1,1,1,1,0,0.520751953,0.129272461,0.16003418,0.00012207,-0.00982666,0.00680542,A,0,2026-08-22_23-06-48,22/08/2026
1,0.806122449,1,0.778801843,0,1,1,1,1,1,0,0.515869141,0.126098633,0.15246582,-0.006622314,-0.011749268,0.001251221,A,0,2026-08-22_23-06-48,22/08/2026
1,0.880952381,0.886861314,1,0.295302013,1,1,1,1,1,0,0.515869141,0.131713867,0.155151367,-0.008392334,-0.012481689,0.000183105,A,0,2026-08-22_23-06-48,22/08/2026
1,0.81462585,0.934306569,0.723502304,0.187919463,1,1,1,1,1,0,0.521118164,0.132568359,0.150756836,-0.011627197,-0.01361084,0.000213623,A,0,2026-08-22_23-06-48,22/08/2026
0.985454545,0.852040816,0.923357664,0.894009217,0,1,1,1,1,1,0,0.517700195,0.133178711,0.150024414,-0.016479492,-0.012237549,-0.000457764,A,0,2026-08-22_23-06-48,22/08/2026
1,0.770408163,1,0.65437788,0.120805369,1,1,1,1,1,0,0.520263672,0.140625,0.150268555,-0.013946533,-0.010437012,0.00189209,A,0,2026-08-22_23-06-48,22/08/2026
0.94,0.87414966,0.857664234,1,0.375838926,1,1,1,1,1,0,0.525024414,0.135131836,0.148925781,-0.015533447,-0.013214111,0.003479004,A,0,2026-08-22_23-06-48,22/08/2026
1,0.897959184,0.959854015,0.97235023,0.228187919,1,1,1,1,1,0,0.525146484,0.143310547,0.147827148,-0.017303467,-0.015350342,0.002563477,A,0,2026-08-22_23-06-48,22/08/2026
1,0.828231293,0.905109489,0.695852535,0.147651007,1,1,1,1,1,0,0.524414063,0.142822266,0.145751953,-0.016998291,-0.017150879,0.005218506,A,0,2026-08-22_23-06-48,22/08/2026
0.989090909,0.824829932,1,0.658986175,0.10738255,1,1,1,1,1,0,0.524536133,0.140380859,0.143676758,-0.019134521,-0.015563965,0.008575439,A,0,2026-08-22_23-06-48,22/08/2026
1,0.784013605,1,0.718894009,0.281879195,1,1,1,1,1,0,0.525024414,0.135986328,0.14465332,-0.015258789,-0.013153076,0.011535645,A,0,2026-08-22_23-06-48,22/08/2026
1,0.775510204,1,0.907834101,0.161073826,1,1,1,1,1,0,0.5234375,0.136962891,0.148071289,-0.015808105,-0.010742188,0.010192871,A,0,2026-08-22_23-06-48,22/08/2026
1,0.848639456,1,0.741935484,0.067114094,1,1,1,1,1,0,0.523803711,0.129638672,0.149658203,-0.013763428,-0.009735107,0.010253906,A,0,2026-08-22_23-06-48,22/08/2026
0.907272727,0.879251701,0.781021898,0.884792627,0.134228188,1,1,1,1,1,0,0.526245117,0.121459961,0.147460938,-0.01071167,-0.010284424,0.009613037,A,0,2026-08-22_23-06-48,22/08/2026
0.949090909,0.850340136,0.894160584,0.751152074,0.026845638,1,1,1,1,1,0,0.526611328,0.118041992,0.154418945,-0.013092041,-0.010253906,0.004821777,A,0,2026-08-22_23-06-48,22/08/2026
0.96,0.926870748,0.660583942,1,0.295302013,1,1,1,1,1,0,0.528320313,0.123535156,0.158569336,-0.014221191,-0.012176514,-0.000701904,A,0,2026-08-22_23-06-48,22/08/2026
0.992727273,0.886054422,0.883211679,0.97235023,0.805369128,1,1,1,1,1,0,0.521484375,0.124511719,0.155029297,-0.014373779,-0.01385498,-0.002838135,A,0,2026-08-22_23-06-48,22/08/2026
1,0.772108844,1,0.732718894,0.147651007,1,1,1,1,1,0,0.521728516,0.129394531,0.147216797,-0.016723633,-0.010162354,-0.003448486,A,0,2026-08-22_23-06-48,22/08/2026
1,0.780612245,1,0.68202765,0.375838926,1,1,1,1,1,0,0.527709961,0.135620117,0.150512695,-0.014251709,-0.006500244,-0.001403809,A,0,2026-08-22_23-06-48,22/08/2026
0.967272727,0.772108844,1,0.686635945,0.147651007,1,1,1,1,1,0,0.524902344,0.138549805,0.149658203,-0.007965088,-0.005615234,0.003967285,A,0,2026-08-22_23-06-48,22/08/2026
1,0.715986395,1,0.788018433,0,1,1,1,1,1,0,0.523071289,0.13293457,0.149047852,-0.006469727,-0.005126953,0.004699707,A,0,2026-08-22_23-06-48,22/08/2026
0.978181818,0.81462585,0.784671533,0.953917051,0.241610738,1,1,1,1,1,0,0.5234375,0.128173828,0.152587891,-0.006286621,-0.00390625,0.002807617,A,0,2026-08-22_23-06-48,22/08/2026
0.969090909,0.933673469,0.875912409,1,0.805369128,1,1,1,1,1,0,0.518432617,0.136352539,0.158081055,-0.00793457,-0.007232666,0.002319336,A,0,2026-08-22_23-06-48,22/08/2026
0.910909091,0.920068027,0.791970803,0.953917051,0.805369128,1,1,1,1,1,0,0.517944336,0.135375977,0.152099609,-0.007202148,-0.009033203,0.004608154,A,0,2026-08-22_23-06-48,22/08/2026
0.970909091,0.909863946,0.99270073,0.935483871,0,1,1,1,1,1,0,0.521972656,0.131713867,0.150268555,-0.009674072,-0.012481689,0.00289917,A,0,2026-08-22_23-06-48,22/08/2026
1,0.863945578,0.981751825,1,0.241610738,1,1,1,1,1,0,0.520141602,0.133422852,0.151367188,-0.010528564,-0.015136719,0.000671387,A,0,2026-08-22_23-06-48,22/08/2026
1,0.891156463,0.886861314,0.737327189,0.416107383,1,1,1,1,1,0,0.518554688,0.141235352,0.150390625,-0.011749268,-0.015319824,0.003845215,A,0,2026-08-22_23-06-48,22/08/2026
1,0.950680272,1,1,0.496644295,1,1,1,1,1,0,0.524414063,0.144042969,0.145019531,-0.005096436,-0.014923096,0.009765625,A,0,2026-08-22_23-06-48,22/08/2026
1,0.765306122,0.587591241,0.732718894,0,1,1,1,1,1,0,0.526000977,0.142822266,0.144897461,0.006469727,-0.014312744,0.019165039,A,0,2026-08-22_23-06-48,22/08/2026
1,0.826530612,0.894160584,1,0.308724832,1,1,1,1,1,0,0.522338867,0.137329102,0.145263672,0.018890381,-0.00869751,0.025878906,A,0,2026-08-22_23-06-48,22/08/2026
1,0.896258503,0.937956204,0.944700461,0,1,1,1,1,1,0,0.526123047,0.118408203,0.144042969,0.025421143,0.001495361,0.023345947,A,0,2026-08-22_23-06-48,22/08/2026
0.949090909,0.892857143,0.937956204,1,0.348993289,1,1,1,1,1,0,0.541625977,0.108032227,0.108276367,-0.00592041,-0.016143799,0.001556396,A,1,2026-08-22_23-06-48,22/08/2026
0.961818182,0.846938776,0.937956204,0.921658986,0.161073826,1,1,1,1,1,0,0.53918457,0.111694336,0.105102539,-0.011535645,-0.016021729,0.002319336,A,1,2026-08-22_23-06-48,22/08/2026
0.998181818,0.889455782,0.99270073,1,0.281879195,1,1,1,1,1,0,0.53918457,0.10949707,0.106689453,-0.007507324,-0.013458252,0.008026123,A,1,2026-08-22_23-06-48,22/08/2026
0.958181818,0.880952381,0.883211679,0.815668203,0.496644295,1,1,1,1,1,0,0.537719727,0.102294922,0.103393555,-0.006103516,-0.010009766,0.006256104,A,1,2026-08-22_23-06-48,22/08/2026
0.932727273,0.908163265,0.704379562,0.958525346,0.013422819,1,1,1,1,1,0,0.54309082,0.103637695,0.10534668,-0.002624512,-0.008209229,0.005584717,A,1,2026-08-22_23-06-48,22/08/2026
1,0.843537415,0.894160584,0.788018433,0.375838926,1,1,1,1,1,0,0.541625977,0.104980469,0.106079102,-0.004486084,-0.00692749,0.004669189,A,1,2026-08-22_23-06-48,22/08/2026
1,0.880952381,0.923357664,1,0.308724832,1,1,1,1,1,0,0.542724609,0.102905273,0.102172852,-0.000518799,-0.004486084,0.007080078,A,1,2026-08-22_23-06-48,22/08/2026
0.94,0.969387755,0.791970803,1,0.805369128,1,1,1,1,1,0,0.546142578,0.08984375,0.103393555,-0.003112793,-0.00567627,0.001159668,A,1,2026-08-22_23-06-48,22/08/2026
1,0.858843537,0.996350365,0.894009217,0.013422819,1,1,1,1,1,0,0.538574219,0.100219727,0.102050781,-0.013122559,-0.004241943,-0.005859375,A,1,2026-08-22_23-06-48,22/08/2026
0.881818182,0.965986395,0.912408759,0.866359447,0.214765101,1,1,1,1,1,0,0.538818359,0.107910156,0.099487305,3.05E-05,-0.005157471,-0.003204346,A,1,2026-08-22_23-06-48,22/08/2026
1,0.804421769,1,0.686635945,0.187919463,1,1,1,1,1,0,0.544555664,0.110595703,0.102294922,0.003845215,0.003540039,-0.004852295,A,1,2026-08-22_23-06-48,22/08/2026
0.970909091,0.93707483,0.744525547,1,0.416107383,1,1,1,1,1,0,0.547607422,0.106933594,0.108032227,-0.000762939,0.002655029,-0.008148193,A,1,2026-08-22_23-06-48,22/08/2026
0.992727273,0.860544218,0.821167883,0.737327189,0.228187919,1,1,1,1,1,0,0.546020508,0.108764648,0.112548828,-0.003753662,-0.003112793,-0.00579834,A,1,2026-08-22_23-06-48,22/08/2026
0.941818182,0.863945578,0.708029197,0.894009217,0.536912752,1,1,1,1,1,0,0.537841797,0.112792969,0.105712891,-0.009765625,-0.004516602,-0.003051758,A,1,2026-08-22_23-06-48,22/08/2026
0.910909091,0.865646259,0.937956204,0.67281106,0.214765101,1,1,1,1,1,0,0.542358398,0.116455078,0.112670898,-0.006988525,-0.002807617,-0.002258301,A,1,2026-08-22_23-06-48,22/08/2026
1,0.850340136,0.981751825,0.861751152,0.241610738,1,1,1,1,1,0,0.538574219,0.116821289,0.108642578,-0.008361816,-0.001434326,-0.001922607,A,1,2026-08-22_23-06-48,22/08/2026
0.927272727,0.899659864,0.740875912,0.97235023,0,1,1,1,1,1,0,0.543823242,0.112426758,0.113525391,-0.01651001,-0.003753662,-0.000793457,A,1,2026-08-22_23-06-48,22/08/2026
1,0.81122449,1,0.594470046,0,1,1,1,1,1,0,0.541748047,0.115234375,0.114868164,-0.016265869,-0.007171631,0.00289917,A,1,2026-08-22_23-06-48,22/08/2026
1,0.80952381,1,0.723502304,0.053691275,1,1,1,1,1,0,0.537475586,0.106323242,0.109375,-0.018096924,-0.00579834,-0.001434326,A,1,2026-08-22_23-06-48,22/08/2026
0.881818182,0.957482993,0.678832117,1,0.013422819,1,1,1,1,1,0,0.539916992,0.105957031,0.107177734,-0.020294189,-0.004425049,-0.005889893,A,1,2026-08-22_23-06-48,22/08/2026
0.88,0.892857143,0.766423358,1,0.456375839,1,1,1,1,1,0,0.541381836,0.107666016,0.116210938,-0.020202637,-0.008300781,-0.006408691,A,1,2026-08-22_23-06-48,22/08/2026
0.992727273,0.882653061,0.824817518,1,0.295302013,1,1,1,1,1,0,0.541015625,0.104980469,0.109130859,-0.024353027,-0.008880615,-0.00869751,A,1,2026-08-22_23-06-48,22/08/2026
1,0.908163265,0.98540146,0.811059908,0.053691275,1,1,1,1,1,0,0.536010742,0.111206055,0.106567383,-0.02243042,-0.00604248,-0.009094238,A,1,2026-08-22_23-06-48,22/08/2026
1,0.824829932,1,0.884792627,0.134228188,1,1,1,1,1,0,0.537231445,0.11328125,0.110473633,-0.014099121,-0.002624512,-0.004425049,A,1,2026-08-22_23-06-48,22/08/2026
1,0.93877551,0.883211679,1,0.228187919,1,1,1,1,1,0,0.536987305,0.109375,0.106079102,-0.011383057,-0.002655029,-0.003997803,A,1,2026-08-22_23-06-48,22/08/2026
0.970909091,0.772108844,0.99270073,0.760368664,0.33557047,1,1,1,1,1,0,0.540527344,0.115478516,0.112548828,-0.014129639,-0.001342773,-0.006286621,A,1,2026-08-22_23-06-48,22/08/2026
1,0.858843537,1,0.737327189,0.805369128,1,1,1,1,1,0,0.536010742,0.11315918,0.116699219,-0.009307861,-0.002624512,-0.001739502,A,1,2026-08-22_23-06-48,22/08/2026
1,0.807823129,0.748175182,1,0.805369128,1,1,1,1,1,0,0.53503418,0.112548828,0.115844727,-0.010772705,-0.0027771,-0.000579834,A,1,2026-08-22_23-06-48,22/08/2026
1,0.899659864,0.996350365,1,0,1,1,1,1,1,0,0.530639648,0.114746094,0.119750977,-0.01385498,-0.002929688,-0.001373291,A,1,2026-08-22_23-06-48,22/08/2026
0.963636364,0.901360544,0.875912409,0.926267281,0,1,1,1,1,1,0,0.532470703,0.110107422,0.11706543,-0.004425049,-0.004852295,0.001922607,A,1,2026-08-22_23-06-48,22/08/2026
1,0.821428571,1,1,0,1,1,1,1,1,0,0.533203125,0.110229492,0.120483398,-0.010620117,-0.006622314,-0.002410889,A,1,2026-08-22_23-06-48,22/08/2026
1,0.952380952,1,1,0.053691275,1,1,1,1,1,0,0.531616211,0.114379883,0.115478516,-0.011779785,-0.008331299,-0.003143311,A,1,2026-08-22_23-06-48,22/08/2026
1,0.884353741,1,0.884792627,0,1,1,1,1,1,0,0.536010742,0.114257813,0.116577148,-0.011779785,-0.010467529,-0.000244141,A,1,2026-08-22_23-06-48,22/08/2026
1,0.993197279,0.693430657,0.852534562,0.067114094,1,1,1,1,1,0,0.535766602,0.121582031,0.110595703,-0.013641357,-0.007965088,0.001861572,A,1,2026-08-22_23-06-48,22/08/2026
0.998181818,0.87244898,1,0.783410138,0.214765101,1,1,1,1,1,0,0.536376953,0.123779297,0.114257813,-0.011169434,-0.008605957,0.006835938,A,1,2026-08-22_23-06-48,22/08/2026
1,0.801020408,0.868613139,0.884792627,0,1,1,1,1,1,0,0.534423828,0.11730957,0.112915039,-0.00479126,-0.008605957,0.012695313,A,1,2026-08-22_23-06-48,22/08/2026
1,0.906462585,0.937956204,0.806451613,0.067114094,1,1,1,1,1,0,0.536376953,0.108520508,0.107177734,-0.004089355,-0.006317139,0.008850098,A,1,2026-08-22_23-06-48,22/08/2026
1,0.848639456,0.989051095,0.884792627,0.134228188,1,1,1,1,1,0,0.539672852,0.108154297,0.109741211,-0.006469727,-0.005706787,0.004486084,A,1,2026-08-22_23-06-48,22/08/2026
0.970909091,0.855442177,0.945255474,0.857142857,0.067114094,1,1,1,1,1,0,0.539550781,0.10949707,0.113647461,-0.014923096,-0.007537842,0.001434326,A,1,2026-08-22_23-06-48,22/08/2026
1,0.889455782,0.832116788,0.760368664,0.268456376,1,1,1,1,1,0,0.536010742,0.111572266,0.113769531,-0.015441895,-0.008453369,0.002624512,A,1,2026-08-22_23-06-48,22/08/2026
1,0.826530612,1,0.797235023,0.201342282,1,1,1,1,1,0,0.530029297,0.104370117,0.152832031,0.000579834,-0.013885498,0.001708984,A,2,2026-08-22_23-06-48,22/08/2026
1,0.954081633,0.806569343,1,0.805369128,1,1,1,1,1,0,0.52746582,0.107055664,0.15246582,-0.007751465,-0.01461792,-0.001281738,A,2,2026-08-22_23-06-48,22/08/2026
1,0.880952381,1,0.658986175,0.147651007,1,1,1,1,1,0,0.529907227,0.110107422,0.155639648,-0.009613037,-0.019073486,0.002990723,A,2,2026-08-22_23-06-48,22/08/2026
1,0.794217687,1,0.801843318,0,1,1,1,1,1,0,0.53112793,0.111572266,0.150756836,-0.010040283,-0.0184021,0.004364014,A,2,2026-08-22_23-06-48,22/08/2026
0.927272727,0.977891156,0.875912409,0.903225806,0.805369128,1,1,1,1,1,0,0.525756836,0.113037109,0.149169922,-0.005859375,-0.014282227,0.004974365,A,2,2026-08-22_23-06-48,22/08/2026
0.974545455,0.93877551,0.726277372,1,0.496644295,1,1,1,1,1,0,0.529907227,0.110717773,0.148803711,0.00680542,-0.012451172,0.006378174,A,2,2026-08-22_23-06-48,22/08/2026
0.923636364,0.87585034,0.832116788,0.958525346,0.228187919,1,1,1,1,1,0,0.529174805,0.106689453,0.145751953,-0.002044678,-0.01071167,0.001159668,A,2,2026-08-22_23-06-48,22/08/2026
1,0.80952381,0.996350365,1,0.375838926,1,1,1,1,1,0,0.526489258,0.118286133,0.143432617,-0.002685547,-0.007141113,0.003326416,A,2,2026-08-22_23-06-48,22/08/2026
0.885454545,0.889455782,0.766423358,0.940092166,0.348993289,1,1,1,1,1,0,0.528686523,0.102172852,0.142700195,-0.00378418,-0.005187988,0.002441406,A,2,2026-08-22_23-06-48,22/08/2026
1,0.831632653,1,1,0.10738255,1,1,1,1,1,0,0.532348633,0.110839844,0.149780273,-0.016265869,-0.004821777,-0.003173828,A,2,2026-08-22_23-06-48,22/08/2026
1,0.828231293,1,0.829493088,0.295302013,1,1,1,1,1,0,0.533081055,0.114868164,0.149658203,-0.010803223,-0.007720947,-0.001495361,A,2,2026-08-22_23-06-48,22/08/2026
1,0.94047619,0.748175182,1,0.322147651,1,1,1,1,1,0,0.530273438,0.113037109,0.140258789,-0.010284424,-0.008361816,-0.002227783,A,2,2026-08-22_23-06-48,22/08/2026
1,0.835034014,1,0.930875576,0.805369128,1,1,1,1,1,0,0.530029297,0.11706543,0.144042969,-0.003845215,-0.00567627,-0.001739502,A,2,2026-08-22_23-06-48,22/08/2026
1,0.850340136,1,0.820276498,0,1,1,1,1,1,0,0.536621094,0.118896484,0.146118164,-0.002716064,-0.003417969,-0.001251221,A,2,2026-08-22_23-06-48,22/08/2026
0.912727273,0.960884354,0.872262774,1,0.187919463,1,1,1,1,1,0,0.529418945,0.114501953,0.149169922,-0.007202148,-0.001556396,-0.003570557,A,2,2026-08-22_23-06-48,22/08/2026
1,0.846938776,1,0.944700461,0.161073826,1,1,1,1,1,0,0.531982422,0.115966797,0.1484375,0.001251221,-0.001678467,0.002227783,A,2,2026-08-22_23-06-48,22/08/2026
1,0.841836735,1,0.834101382,0,1,1,1,1,1,0,0.526855469,0.109863281,0.144287109,-0.0105896,-0.001647949,-0.00402832,A,2,2026-08-22_23-06-48,22/08/2026
1,0.880952381,0.813868613,1,0.281879195,1,1,1,1,1,0,0.524414063,0.120361328,0.151855469,-0.010223389,0.00088501,-0.003143311,A,2,2026-08-22_23-06-48,22/08/2026
1,0.928571429,0.781021898,1,0.389261745,1,1,1,1,1,0,0.527587891,0.121459961,0.158691406,-0.002716064,0.001312256,0.001983643,A,2,2026-08-22_23-06-48,22/08/2026
1,0.87585034,0.872262774,0.944700461,0.134228188,1,1,1,1,1,0,0.532104492,0.119506836,0.159301758,-0.001251221,-0.001159668,0.000335693,A,2,2026-08-22_23-06-48,22/08/2026
1,0.889455782,0.98540146,0.852534562,0.067114094,1,1,1,1,1,0,0.526977539,0.117553711,0.15637207,-0.007598877,-0.001800537,0.002380371,A,2,2026-08-22_23-06-48,22/08/2026
1,0.797619048,0.98540146,0.834101382,0.147651007,1,1,1,1,1,0,0.525756836,0.114746094,0.154541016,-0.004730225,-0.0050354,0.004638672,A,2,2026-08-22_23-06-48,22/08/2026
1,0.884353741,1,0.838709677,0.33557047,1,1,1,1,1,0,0.523803711,0.107666016,0.151855469,-0.012878418,-0.007019043,0.000976563,A,2,2026-08-22_23-06-48,22/08/2026
1,0.942176871,1,1,0.080536913,1,1,1,1,1,0,0.521484375,0.118408203,0.158325195,-0.015380859,-0.005065918,0.001220703,A,2,2026-08-22_23-06-48,22/08/2026
0.936363636,0.828231293,0.675182482,1,0.805369128,1,1,1,1,1,0,0.520507813,0.108276367,0.147583008,-0.007995605,-0.007263184,0.002075195,A,2,2026-08-22_23-06-48,22/08/2026
0.94,0.784013605,1,0.797235023,0.295302013,1,1,1,1,1,0,0.518798828,0.111450195,0.150512695,-0.010467529,-0.001983643,-0.005401611,A,2,2026-08-22_23-06-48,22/08/2026
1,0.712585034,0.770072993,0.631336406,0,1,1,1,1,1,0,0.520385742,0.131347656,0.157226563,0.011993408,0.007568359,-0.009063721,A,2,2026-08-22_23-06-48,22/08/2026
1,1,1,0.98156682,0,1,1,1,1,1,0,0.526367188,0.119628906,0.151367188,0.024078369,-0.001678467,0.008758545,A,2,2026-08-22_23-06-48,22/08/2026
0.887272727,1,1,1,0.067114094,1,1,1,1,1,0,0.531616211,0.107666016,0.147949219,0.033721924,-0.004882813,0.012817383,A,2,2026-08-22_23-06-48,22/08/2026
0.92,0.971088435,0.952554745,1,0.375838926,1,1,1,1,1,0,0.530517578,0.103515625,0.154907227,0.013916016,0.001342773,0.000610352,A,2,2026-08-22_23-06-48,22/08/2026
0.949090909,0.804421769,1,1,0,1,1,1,1,1,0,0.532592773,0.114746094,0.155273438,0.008148193,-0.00088501,-0.001098633,A,2,2026-08-22_23-06-48,22/08/2026
0.872727273,0.925170068,1,1,0.268456376,1,1,1,1,1,0,0.540405273,0.114868164,0.152832031,-0.00869751,-0.008453369,0.00112915,A,2,2026-08-22_23-06-48,22/08/2026
0.94,0.899659864,0.777372263,0.880184332,0.147651007,1,1,1,1,1,0,0.532714844,0.118408203,0.150146484,-0.029022217,-0.009429932,-0.002502441,A,2,2026-08-22_23-06-48,22/08/2026
1,0.913265306,1,0.806451613,0.228187919,1,1,1,1,1,0,0.529663086,0.133666992,0.149169922,-0.023406982,-0.006622314,0.003234863,A,2,2026-08-22_23-06-48,22/08/2026
0.934545455,0.884353741,0.934306569,0.912442396,0.228187919,1,1,1,1,1,0,0.528930664,0.125244141,0.146484375,-0.004119873,-0.004516602,0.007293701,A,2,2026-08-22_23-06-48,22/08/2026
1,0.884353741,0.854014599,0.834101382,0.228187919,1,1,1,1,1,0,0.530273438,0.109130859,0.149169922,-0.001190186,-0.003570557,0.005187988,A,2,2026-08-22_23-06-48,22/08/2026
1,0.884353741,1,1,0.33557047,1,1,1,1,1,0,0.527587891,0.112426758,0.148193359,0.004730225,-0.005157471,0.001861572,A,2,2026-08-22_23-06-48,22/08/2026
1,0.879251701,0.948905109,0.976958525,0.805369128,1,1,1,1,1,0,0.524536133,0.116943359,0.145263672,0,-0.003662109,0.000366211,A,2,2026-08-22_23-06-48,22/08/2026
1,0.942176871,0.894160584,1,0.214765101,1,1,1,1,1,0,0.523071289,0.117431641,0.151367188,-0.010681152,-0.005310059,0.000213623,A,2,2026-08-22_23-06-48,22/08/2026
0.94,0.848639456,0.697080292,0.815668203,0.805369128,1,1,1,1,1,0,0.524291992,0.120483398,0.156860352,-0.019104004,-0.007049561,0.000518799,A,2,2026-08-22_23-06-48,22/08/2026
1,0.863945578,0.959854015,0.815668203,0.013422819,1,1,1,1,1,0,0.534423828,0.110961914,0.139892578,-0.004638672,-0.007415771,0.018096924,A,3,2026-08-22_23-06-48,22/08/2026
0.998181818,0.816326531,0.890510949,0.912442396,0.348993289,1,1,1,1,1,0,0.534423828,0.095458984,0.139404297,-0.002532959,-0.010253906,0.020874023,A,3,2026-08-22_23-06-48,22/08/2026
1,0.846938776,1,0.66359447,0.483221477,1,1,1,1,1,0,0.534790039,0.074829102,0.133911133,-0.016357422,-0.014526367,0.005493164,A,3,2026-08-22_23-06-48,22/08/2026
0.978181818,0.828231293,0.912408759,0.889400922,0.322147651,1,1,1,1,1,0,0.529907227,0.096801758,0.139160156,-0.033935547,-0.01272583,-0.006378174,A,3,2026-08-22_23-06-48,22/08/2026
1,0.962585034,0.95620438,0.930875576,0.147651007,1,1,1,1,1,0,0.533813477,0.10168457,0.133178711,-0.022827148,-0.014434814,-0.00189209,A,3,2026-08-22_23-06-48,22/08/2026
1,0.826530612,0.989051095,0.930875576,0.067114094,1,1,1,1,1,0,0.534423828,0.104614258,0.128417969,-0.022613525,-0.017456055,-0.000854492,A,3,2026-08-22_23-06-48,22/08/2026
0.963636364,0.920068027,1,0.98156682,0.523489933,1,1,1,1,1,0,0.540039063,0.108642578,0.126586914,-0.01373291,-0.015594482,-0.000396729,A,3,2026-08-22_23-06-48,22/08/2026
0.936363636,0.853741497,1,0.889400922,0.10738255,1,1,1,1,1,0,0.539794922,0.112060547,0.126342773,-0.011444092,-0.010284424,6.10E-05,A,3,2026-08-22_23-06-48,22/08/2026
0.938181818,0.906462585,0.799270073,1,0.416107383,1,1,1,1,1,0,0.538574219,0.114990234,0.123901367,-0.009307861,-0.007446289,0.003326416,A,3,2026-08-22_23-06-48,22/08/2026
0.938181818,0.869047619,0.875912409,1,0.053691275,1,1,1,1,1,0,0.542480469,0.10925293,0.122192383,-0.008911133,-0.003845215,0.008331299,A,3,2026-08-22_23-06-48,22/08/2026
0.921818182,0.858843537,0.912408759,0.884792627,0.080536913,1,1,1,1,1,0,0.540771484,0.102783203,0.128051758,-0.007019043,-0.003479004,0.007080078,A,3,2026-08-22_23-06-48,22/08/2026
1,0.765306122,1,0.6359447,0.134228188,1,1,1,1,1,0,0.54309082,0.097290039,0.127197266,-0.010314941,-0.005371094,0.000610352,A,3,2026-08-22_23-06-48,22/08/2026
1,0.853741497,0.98540146,0.755760369,0.805369128,1,1,1,1,1,0,0.538452148,0.102294922,0.127197266,-0.016845703,-0.005096436,-0.002838135,A,3,2026-08-22_23-06-48,22/08/2026
1,0.802721088,1,0.917050691,0,1,1,1,1,1,0,0.542114258,0.106445313,0.131225586,-0.015838623,-0.007995605,-0.001525879,A,3,2026-08-22_23-06-48,22/08/2026
1,0.818027211,1,0.737327189,0.241610738,1,1,1,1,1,0,0.536499023,0.101318359,0.126220703,-0.017059326,-0.009155273,-0.002655029,A,3,2026-08-22_23-06-48,22/08/2026
0.94,0.93877551,0.759124088,0.912442396,0.228187919,1,1,1,1,1,0,0.541137695,0.108154297,0.123291016,-0.022064209,-0.007629395,-0.008331299,A,3,2026-08-22_23-06-48,22/08/2026
0.998181818,0.772108844,0.948905109,0.926267281,0.120805369,1,1,1,1,1,0,0.536376953,0.109375,0.120361328,-0.019836426,-0.003967285,-0.008117676,A,3,2026-08-22_23-06-48,22/08/2026
0.905454545,0.852040816,1,0.760368664,0.013422819,1,1,1,1,1,0,0.537475586,0.113891602,0.127319336,-0.021759033,0.002197266,-0.006164551,A,3,2026-08-22_23-06-48,22/08/2026
1,0.853741497,0.97810219,0.737327189,0.33557047,1,1,1,1,1,0,0.531860352,0.115722656,0.130493164,-0.018585205,0.007202148,-0.004119873,A,3,2026-08-22_23-06-48,22/08/2026
1,0.831632653,0.981751825,0.709677419,0.362416107,1,1,1,1,1,0,0.531616211,0.114990234,0.136230469,-0.014770508,0.011016846,-0.001617432,A,3,2026-08-22_23-06-48,22/08/2026
0.974545455,0.826530612,0.872262774,1,0.161073826,1,1,1,1,1,0,0.533447266,0.110107422,0.137451172,-0.011138916,0.011566162,-0.003631592,A,3,2026-08-22_23-06-48,22/08/2026
1,0.845238095,1,0.705069124,0.214765101,1,1,1,1,1,0,0.532592773,0.115722656,0.150756836,-0.014099121,0.005218506,-0.005432129,A,3,2026-08-22_23-06-48,22/08/2026
0.967272727,0.87755102,0.759124088,1,0.375838926,1,1,1,1,1,0,0.525634766,0.112304688,0.147949219,-0.005706787,-0.007659912,0.000610352,A,3,2026-08-22_23-06-48,22/08/2026
0.929090909,0.94047619,0.766423358,1,0.053691275,1,1,1,1,1,0,0.526489258,0.100830078,0.139038086,-0.008911133,-0.0128479,-0.001159668,A,3,2026-08-22_23-06-48,22/08/2026
0.96,0.933673469,0.813868613,0.944700461,0.536912752,1,1,1,1,1,0,0.523925781,0.099365234,0.132568359,-0.020446777,-0.01348877,-0.009338379,A,3,2026-08-22_23-06-48,22/08/2026
0.947272727,0.911564626,0.795620438,0.889400922,0,1,1,1,1,1,0,0.522338867,0.107543945,0.1328125,-0.026245117,-0.010620117,-0.013977051,A,3,2026-08-22_23-06-48,22/08/2026
1,0.81462585,1,0.66359447,0.241610738,1,1,1,1,1,0,0.533203125,0.115722656,0.130615234,-0.021606445,-0.013061523,-0.005249023,A,3,2026-08-22_23-06-48,22/08/2026
0.974545455,0.835034014,0.967153285,0.668202765,0,1,1,1,1,1,0,0.532470703,0.116333008,0.128540039,-0.026947021,-0.011016846,-0.000732422,A,3,2026-08-22_23-06-48,22/08/2026
1,0.853741497,0.890510949,0.834101382,0.805369128,1,1,1,1,1,0,0.536132813,0.114501953,0.133056641,-0.023620605,-0.009338379,0.001403809,A,3,2026-08-22_23-06-48,22/08/2026
0.923636364,0.908163265,0.781021898,1,0.402684564,1,1,1,1,1,0,0.532958984,0.119018555,0.13684082,-0.013824463,-0.0105896,0.004180908,A,3,2026-08-22_23-06-48,22/08/2026
0.998181818,0.826530612,0.941605839,0.834101382,0.120805369,1,1,1,1,1,0,0.536743164,0.10168457,0.136108398,-0.016052246,-0.013458252,-0.000671387,A,3,2026-08-22_23-06-48,22/08/2026
1,0.821428571,1,0.737327189,0.040268456,1,1,1,1,1,0,0.536865234,0.109130859,0.138549805,-0.03125,-0.016723633,-0.005737305,A,3,2026-08-22_23-06-48,22/08/2026
0.938181818,0.853741497,0.667883212,1,0.805369128,1,1,1,1,1,0,0.536132813,0.11328125,0.136108398,-0.029083252,-0.021942139,-0.003875732,A,3,2026-08-22_23-06-48,22/08/2026
0.996363636,0.852040816,1,0.778801843,0,1,1,1,1,1,0,0.536376953,0.111816406,0.126586914,-0.031402588,-0.022216797,-0.003448486,A,3,2026-08-22_23-06-48,22/08/2026
1,0.841836735,0.861313869,0.801843318,0.805369128,1,1,1,1,1,0,0.534423828,0.115600586,0.125732422,-0.026367188,-0.021179199,-0.001983643,A,3,2026-08-22_23-06-48,22/08/2026
1,0.819727891,0.912408759,0.986175115,0.805369128,1,1,1,1,1,0,0.531494141,0.105102539,0.126220703,-0.026184082,-0.019500732,-0.006774902,A,3,2026-08-22_23-06-48,22/08/2026
0.958181818,0.843537415,0.99270073,0.967741935,0.093959732,1,1,1,1,1,0,0.533691406,0.11328125,0.131469727,-0.025909424,-0.019104004,-0.010894775,A,3,2026-08-22_23-06-48,22/08/2026
0.996363636,0.909863946,0.642335766,1,0.805369128,1,1,1,1,1,0,0.529663086,0.108886719,0.130126953,-0.027496338,-0.022338867,-0.010650635,A,3,2026-08-22_23-06-48,22/08/2026
1,0.790816327,1,0.829493088,0.134228188,1,1,1,1,1,0,0.534057617,0.108276367,0.130737305,-0.034454346,-0.026153564,-0.01361084,A,3,2026-08-22_23-06-48,22/08/2026
0.941818182,0.908163265,0.748175182,0.98156682,0.483221477,1,1,1,1,1,0,0.530273438,0.106567383,0.125732422,-0.040649414,-0.032287598,-0.022460938,A,3,2026-08-22_23-06-48,22/08/2026
0.978181818,0.828231293,0.934306569,0.880184332,0,1,1,1,1,1,0,0.508422852,0.126953125,0.221801758,-0.011779785,0.10534668,-0.028045654,A,4,2026-08-22_23-06-48,22/08/2026
0.910909091,0.821428571,1,0.894009217,0.080536913,1,1,1,1,1,0,0.518432617,0.124267578,0.246704102,-0.003875732,0.084869385,-0.032318115,A,4,2026-08-22_23-06-48,22/08/2026
1,0.853741497,0.967153285,0.737327189,0.161073826,1,1,1,1,1,0,0.512084961,0.135742188,0.255737305,-0.024932861,0.048706055,-0.037353516,A,4,2026-08-22_23-06-48,22/08/2026
1,0.896258503,0.95620438,0.935483871,0.067114094,1,1,1,1,1,0,0.498901367,0.164672852,0.251708984,-0.046173096,0.023956299,-0.032073975,A,4,2026-08-22_23-06-48,22/08/2026
0.910909091,0.870748299,0.941605839,0.829493088,0.214765101,1,1,1,1,1,0,0.491333008,0.181152344,0.257080078,-0.024230957,0.00680542,-0.003845215,A,4,2026-08-22_23-06-48,22/08/2026
1,0.802721088,0.883211679,0.764976959,0,1,1,1,1,1,0,0.494140625,0.155029297,0.247436523,-0.003173828,-0.013183594,0.017333984,A,4,2026-08-22_23-06-48,22/08/2026
1,0.884353741,0.937956204,0.806451613,0.174496644,1,1,1,1,1,0,0.496459961,0.14050293,0.227294922,-0.004302979,-0.029541016,0.020904541,A,4,2026-08-22_23-06-48,22/08/2026
1,0.794217687,0.821167883,0.967741935,0,1,1,1,1,1,0,0.490966797,0.124511719,0.201416016,-0.019683838,-0.038665771,0.02255249,A,4,2026-08-22_23-06-48,22/08/2026
1,0.794217687,0.879562044,1,0,1,1,1,1,1,0,0.487670898,0.125,0.195068359,-0.009643555,-0.041259766,0.029296875,A,4,2026-08-22_23-06-48,22/08/2026
1,0.850340136,1,0.709677419,0.402684564,1,1,1,1,1,0,0.494995117,0.107910156,0.185302734,0.000854492,-0.03225708,0.025726318,A,4,2026-08-22_23-06-48,22/08/2026
0.994545455,0.884353741,0.883211679,0.737327189,0.295302013,1,1,1,1,1,0,0.506958008,0.090942383,0.182373047,0.000335693,-0.035522461,0.015960693,A,4,2026-08-22_23-06-48,22/08/2026
0.881818182,0.840136054,0.989051095,0.732718894,0.268456376,1,1,1,1,1,0,0.512573242,0.08972168,0.170410156,-0.009613037,-0.040588379,0.007049561,A,4,2026-08-22_23-06-48,22/08/2026
0.881818182,0.81122449,0.846715328,0.778801843,0.120805369,1,1,1,1,1,0,0.510864258,0.092895508,0.167480469,-0.012756348,-0.044464111,0.002685547,A,4,2026-08-22_23-06-48,22/08/2026
0.94,0.760204082,0.875912409,0.622119816,0.147651007,1,1,1,1,1,0,0.516113281,0.104370117,0.164306641,-0.013153076,-0.036651611,-0.00567627,A,4,2026-08-22_23-06-48,22/08/2026
1,0.841836735,0.919708029,0.797235023,0,1,1,1,1,1,0,0.522949219,0.111938477,0.154541016,-0.009979248,-0.025848389,-0.009552002,A,4,2026-08-22_23-06-48,22/08/2026
1,0.835034014,0.996350365,1,0.241610738,1,1,1,1,1,0,0.522216797,0.123779297,0.143310547,-0.013885498,-0.011901855,-0.006500244,A,4,2026-08-22_23-06-48,22/08/2026
1,0.853741497,1,0.815668203,0,1,1,1,1,1,0,0.529785156,0.127807617,0.149047852,-0.000915527,0.001556396,-0.00289917,A,4,2026-08-22_23-06-48,22/08/2026
1,0.908163265,1,0.907834101,0.805369128,1,1,1,1,1,0,0.534179688,0.129150391,0.157836914,-0.002868652,0.014984131,-0.000335693,A,4,2026-08-22_23-06-48,22/08/2026
0.905454545,0.806122449,0.697080292,0.824884793,0.120805369,1,1,1,1,1,0,0.537353516,0.124511719,0.168701172,0.003204346,0.016448975,0.006469727,A,4,2026-08-22_23-06-48,22/08/2026
1,0.931972789,1,0.995391705,0.241610738,1,1,1,1,1,0,0.533447266,0.115112305,0.173706055,-0.002410889,0.01473999,0.005310059,A,4,2026-08-22_23-06-48,22/08/2026
0.901818182,0.857142857,0.817518248,0.884792627,0.241610738,1,1,1,1,1,0,0.525390625,0.117431641,0.186279297,-0.010375977,0.016143799,0.001403809,A,4,2026-08-22_23-06-48,22/08/2026
0.909090909,0.818027211,0.908759124,0.967741935,0.214765101,1,1,1,1,1,0,0.520141602,0.126953125,0.198730469,-0.007629395,0.014038086,0.002716064,A,4,2026-08-22_23-06-48,22/08/2026
0.990909091,0.926870748,0.996350365,1,0.174496644,1,1,1,1,1,0,0.520751953,0.120605469,0.207763672,0.000366211,0.002807617,0.003448486,A,4,2026-08-22_23-06-48,22/08/2026
0.976363636,0.74829932,0.923357664,0.852534562,0,1,1,1,1,1,0,0.512207031,0.115722656,0.209350586,-3.05E-05,-0.010070801,-0.000854492,A,4,2026-08-22_23-06-48,22/08/2026
1,0.904761905,0.98540146,0.99078341,0.013422819,1,1,1,1,1,0,0.506469727,0.125366211,0.201293945,0.003143311,-0.017486572,-0.005493164,A,4,2026-08-22_23-06-48,22/08/2026
1,0.87244898,0.919708029,0.953917051,0.134228188,1,1,1,1,1,0,0.502441406,0.128417969,0.191040039,0.018096924,-0.021057129,-3.05E-05,A,4,2026-08-22_23-06-48,22/08/2026
1,0.908163265,0.97810219,0.668202765,0.241610738,1,1,1,1,1,0,0.500244141,0.119873047,0.1796875,0.011993408,-0.020996094,-0.002288818,A,4,2026-08-22_23-06-48,22/08/2026
0.967272727,0.926870748,1,1,0.147651007,1,1,1,1,1,0,0.510009766,0.134277344,0.173461914,0.014404297,-0.017791748,0.005554199,A,4,2026-08-22_23-06-48,22/08/2026
0.992727273,0.911564626,0.894160584,1,0.33557047,1,1,1,1,1,0,0.510131836,0.128662109,0.168823242,0.00177002,-0.014312744,0.007507324,A,4,2026-08-22_23-06-48,22/08/2026
1,0.880952381,1,1,0.469798658,1,1,1,1,1,0,0.512084961,0.133178711,0.175048828,-0.008850098,-0.011474609,0.01071167,A,4,2026-08-22_23-06-48,22/08/2026
0.910909091,0.916666667,0.868613139,1,0,1,1,1,1,1,0,0.514160156,0.133789063,0.177612305,-0.006896973,-0.006439209,0.016479492,A,4,2026-08-22_23-06-48,22/08/2026
0.958181818,0.87755102,1,0.958525346,0.268456376,1,1,1,1,1,0,0.511352539,0.118652344,0.184326172,-0.005126953,-0.005645752,0.015930176,A,4,2026-08-22_23-06-48,22/08/2026
0.998181818,0.81122449,0.908759124,0.926267281,0.134228188,1,1,1,1,1,0,0.51574707,0.121704102,0.18762207,0.000427246,-0.008911133,0.015838623,A,4,2026-08-22_23-06-48,22/08/2026
0.952727273,0.914965986,0.832116788,0.755760369,0.147651007,1,1,1,1,1,0,0.518310547,0.118408203,0.187011719,0.008300781,-0.015075684,0.018737793,A,4,2026-08-22_23-06-48,22/08/2026
0.909090909,0.862244898,0.872262774,1,0.268456376,1,1,1,1,1,0,0.518798828,0.11340332,0.179931641,0.01385498,-0.023498535,0.018829346,A,4,2026-08-22_23-06-48,22/08/2026
0.958181818,0.87755102,1,0.967741935,0.187919463,1,1,1,1,1,0,0.518798828,0.106201172,0.177978516,-0.003326416,-0.020477295,0.004608154,A,4,2026-08-22_23-06-48,22/08/2026
1,0.772108844,0.839416058,1,0.496644295,1,1,1,1,1,0,0.518310547,0.123779297,0.174926758,-0.014923096,-0.011810303,0.000946045,A,4,2026-08-22_23-06-48,22/08/2026
0.98,0.829931973,0.99270073,0.778801843,0.268456376,1,1,1,1,1,0,0.519897461,0.119750977,0.17956543,-0.011627197,-0.011901855,0.005401611,A,4,2026-08-22_23-06-48,22/08/2026
0.998181818,0.870748299,1,0.829493088,0,1,1,1,1,1,0,0.525268555,0.124023438,0.180908203,-0.017028809,-0.016113281,0.006500244,A,4,2026-08-22_23-06-48,22/08/2026
1,0.767006803,1,0.686635945,0,1,1,1,1,1,0,0.518920898,0.127075195,0.176147461,-0.000823975,-0.01940918,0.008300781,A,4,2026-08-22_23-06-48,22/08/2026
0.878181818,0.933673469,0.854014599,0.709677419,0.348993289,0,1,1,1,1,0,0.563110352,-0.00390625,0.024658203,-0.022399902,-0.00567627,0.012817383,C,0,2026-08-22_23-06-48,22/08/2026
0.909090909,0.977891156,0.817518248,0.68202765,0.402684564,0,1,1,1,1,0,0.560546875,-0.006469727,0.025146484,-0.022186279,-0.004638672,0.009368896,C,0,2026-08-22_23-06-48,22/08/2026
0.865454545,0.926870748,0.916058394,0.778801843,0.939597315,0,1,1,1,1,0,0.563110352,-0.004516602,0.026977539,-0.006256104,-0.00567627,0.004241943,C,0,2026-08-22_23-06-48,22/08/2026
0.98,0.819727891,1,0.861751152,0.805369128,0,1,1,1,1,0,0.558959961,-0.002807617,0.028320313,0.001586914,-0.007202148,0.001312256,C,0,2026-08-22_23-06-48,22/08/2026
0.941818182,0.959183673,1,0.589861751,1,0,1,1,1,1,0,0.561645508,-0.004638672,0.022827148,0.001373291,-0.012512207,0.000793457,C,0,2026-08-22_23-06-48,22/08/2026
0.912727273,0.909863946,0.806569343,0.705069124,0.805369128,0,1,1,1,1,0,0.563232422,-0.003173828,0.021606445,-0.007141113,-0.0128479,0.003540039,C,0,2026-08-22_23-06-48,22/08/2026
0.938181818,0.93537415,0.799270073,0.67281106,1,0,1,1,1,1,0,0.559814453,0.002197266,0.018066406,-0.00680542,-0.008850098,0.006744385,C,0,2026-08-22_23-06-48,22/08/2026
0.910909091,0.993197279,0.996350365,0.815668203,0.805369128,0,1,1,1,1,0,0.556396484,0.001831055,0.026367188,-0.001464844,-0.005737305,0.006713867,C,0,2026-08-22_23-06-48,22/08/2026
0.814545455,0.972789116,0.686131387,0.705069124,0.510067114,0,1,1,1,1,0,0.567016602,-0.003662109,0.025756836,-0.002960205,-0.009246826,0.001678467,C,0,2026-08-22_23-06-48,22/08/2026
0.88,0.918367347,0.967153285,0.884792627,0.805369128,0,1,1,1,1,0,0.562988281,0.000732422,0.020507813,-0.002258301,-0.011230469,0.000549316,C,0,2026-08-22_23-06-48,22/08/2026
0.901818182,0.979591837,0.908759124,0.884792627,1,0,1,1,1,1,0,0.5625,-0.001708984,0.025634766,-0.005554199,-0.01171875,0.003082275,C,0,2026-08-22_23-06-48,22/08/2026
0.978181818,0.806122449,0.912408759,0.755760369,0.805369128,0,1,1,1,1,0,0.561645508,-0.001342773,0.022583008,-0.016265869,-0.013458252,0.004638672,C,0,2026-08-22_23-06-48,22/08/2026
0.841818182,0.870748299,0.919708029,0.506912442,0.805369128,0,1,1,1,1,0,0.560668945,0.006103516,0.016845703,-0.019317627,-0.017669678,0.00769043,C,0,2026-08-22_23-06-48,22/08/2026
0.943636364,0.913265306,0.930656934,0.428571429,0.187919463,0,1,1,1,1,0,0.558227539,0.001098633,0.018798828,-0.012298584,-0.015258789,0.005523682,C,0,2026-08-22_23-06-48,22/08/2026
0.858181818,0.950680272,0.861313869,0.737327189,1,0,1,1,1,1,0,0.559326172,0.000244141,0.021484375,-0.009124756,-0.011230469,0.001464844,C,0,2026-08-22_23-06-48,22/08/2026
0.905454545,0.969387755,0.99270073,0.737327189,1,0,1,1,1,1,0,0.562866211,0.000854492,0.019042969,-0.000579834,-0.00994873,-0.000396729,C,0,2026-08-22_23-06-48,22/08/2026
0.881818182,0.925170068,1,0.898617512,0.832214765,0,1,1,1,1,0,0.562255859,-0.00378418,0.020996094,0.003692627,-0.015075684,-0.001739502,C,0,2026-08-22_23-06-48,22/08/2026
0.987272727,0.952380952,1,0.737327189,0.805369128,0,1,1,1,1,0,0.559204102,-0.009521484,0.013183594,-0.011047363,-0.020874023,-0.008728027,C,0,2026-08-22_23-06-48,22/08/2026
0.992727273,0.93877551,1,0.539170507,0.375838926,0,1,1,1,1,0,0.560058594,-0.000976563,0.010498047,-0.0128479,-0.017700195,-0.009368896,C,0,2026-08-22_23-06-48,22/08/2026
0.92,0.926870748,0.989051095,0.571428571,1,0,1,1,1,1,0,0.556518555,0.003662109,0.01184082,-0.008728027,-0.005096436,-0.004364014,C,0,2026-08-22_23-06-48,22/08/2026
0.94,0.962585034,1,0.608294931,0.228187919,0,1,1,1,1,0,0.558837891,0.000366211,0.013183594,-0.01449585,0.00213623,0.000335693,C,0,2026-08-22_23-06-48,22/08/2026
0.910909091,0.986394558,1,0.788018433,0.805369128,0,1,1,1,1,0,0.564941406,0.007568359,0.016967773,-0.014831543,0.002929688,0.004669189,C,0,2026-08-22_23-06-48,22/08/2026
0.823636364,0.918367347,0.802919708,0.594470046,0.805369128,0,1,1,1,1,0,0.56262207,0.006835938,0.022338867,-0.009735107,0.000915527,0.00567627,C,0,2026-08-22_23-06-48,22/08/2026
0.878181818,0.891156463,0.945255474,0.737327189,0.872483221,0,1,1,1,1,0,0.565185547,0.001831055,0.025268555,-0.009185791,-0.006652832,0.004638672,C,0,2026-08-22_23-06-48,22/08/2026
1,0.972789116,1,0.66359447,0.818791946,0,1,1,1,1,0,0.560058594,-0.002563477,0.023925781,-0.013092041,-0.01159668,0.003387451,C,0,2026-08-22_23-06-48,22/08/2026
0.907272727,0.99829932,0.99270073,0.705069124,0.805369128,0,1,1,1,1,0,0.559204102,0.002685547,0.024169922,-0.014709473,-0.014892578,0.005706787,C,0,2026-08-22_23-06-48,22/08/2026
0.916363636,0.960884354,1,0.797235023,0.859060403,0,1,1,1,1,0,0.559692383,-0.00402832,0.020751953,-0.015991211,-0.014801025,0.008148193,C,0,2026-08-22_23-06-48,22/08/2026
0.92,1,0.945255474,0.811059908,1,0,1,1,1,1,0,0.559082031,-0.001708984,0.017089844,-0.021575928,-0.010955811,0.007202148,C,0,2026-08-22_23-06-48,22/08/2026
0.969090909,0.943877551,0.99270073,0.391705069,0.483221477,0,1,1,1,1,0,0.559326172,-0.005615234,0.016967773,-0.031280518,-0.008666992,0.006225586,C,0,2026-08-22_23-06-48,22/08/2026
0.883636364,0.918367347,0.908759124,0.788018433,0.483221477,0,1,1,1,1,0,0.563354492,0.006713867,0.013427734,-0.032043457,-0.014190674,0.007019043,C,0,2026-08-22_23-06-48,22/08/2026
0.930909091,0.891156463,0.850364964,0.576036866,0.805369128,0,1,1,1,1,0,0.559204102,0.006347656,0.008422852,-0.023925781,-0.017913818,0.007507324,C,0,2026-08-22_23-06-48,22/08/2026
1,1,0.875912409,0.6359447,0.805369128,0,1,1,1,1,0,0.552734375,0.002319336,0.010986328,-0.016815186,-0.009033203,0.004486084,C,0,2026-08-22_23-06-48,22/08/2026
0.850909091,1,0.97080292,0.884792627,0.805369128,0,1,1,1,1,0,0.558105469,-0.001098633,0.008544922,-0.016815186,0.004730225,-0.001068115,C,0,2026-08-22_23-06-48,22/08/2026
0.914545455,0.994897959,1,0.608294931,0.953020134,0,1,1,1,1,0,0.559448242,0.000244141,0.006225586,-0.014221191,0.01083374,0.001586914,C,0,2026-08-22_23-06-48,22/08/2026
0.912727273,0.977891156,0.751824818,0.67281106,0.939597315,0,1,1,1,1,0,0.563354492,-0.00012207,0.021240234,-0.010620117,0.011474609,0.00592041,C,0,2026-08-22_23-06-48,22/08/2026
0.992727273,0.909863946,1,0.465437788,0.536912752,0,1,1,1,1,0,0.563842773,-0.005493164,0.029418945,-0.015594482,0.005096436,0.008117676,C,0,2026-08-22_23-06-48,22/08/2026
0.943636364,0.960884354,0.97080292,0.884792627,0.389261745,0,1,1,1,1,0,0.562988281,-0.006469727,0.030883789,-0.018737793,-0.004577637,0.005187988,C,0,2026-08-22_23-06-48,22/08/2026
1,0.891156463,1,0.686635945,1,0,1,1,1,1,0,0.564086914,-0.004638672,0.026977539,-0.02557373,-0.008117676,0.001556396,C,0,2026-08-22_23-06-48,22/08/2026
0.852727273,0.981292517,0.875912409,0.838709677,1,0,1,1,1,1,0,0.551025391,0.006469727,0.030517578,-0.020111084,-0.005615234,0.003051758,C,0,2026-08-22_23-06-48,22/08/2026
1,0.850340136,1,0.548387097,0.926174497,0,1,1,1,1,0,0.560424805,0.003540039,0.027587891,-0.022033691,-0.00604248,0.005432129,C,0,2026-08-22_23-06-48,22/08/2026
0.987272727,0.984693878,0.919708029,0.723502304,0.429530201,1,1,1,1,1,0,0.544921875,0.003051758,-0.120239258,-0.012420654,-0.013977051,0.003936768,C,1,2026-08-22_23-06-48,22/08/2026
0.996363636,1,0.846715328,0.806451613,1,1,1,1,1,1,0,0.544921875,0.00793457,-0.121704102,-0.01651001,-0.000823975,0.004150391,C,1,2026-08-22_23-06-48,22/08/2026
0.872727273,1,0.737226277,0.926267281,0.402684564,1,1,1,1,1,0,0.546875,0.004882813,-0.113525391,-0.012939453,0.007446289,0.006011963,C,1,2026-08-22_23-06-48,22/08/2026
1,0.841836735,1,0.442396313,0.483221477,1,1,1,1,1,0,0.544677734,-0.000366211,-0.102050781,-0.009918213,0.005249023,0.008331299,C,1,2026-08-22_23-06-48,22/08/2026
0.916363636,0.87585034,1,0.580645161,0.322147651,1,1,1,1,1,0,0.549560547,-0.001831055,-0.093505859,-0.006500244,-0.0027771,0.008605957,C,1,2026-08-22_23-06-48,22/08/2026
0.863636364,1,0.598540146,0.788018433,1,1,1,1,1,1,0,0.550292969,-0.006591797,-0.096191406,-0.012878418,-0.014129639,0.006225586,C,1,2026-08-22_23-06-48,22/08/2026
0.958181818,0.984693878,0.762773723,1,0.88590604,1,1,1,1,1,0,0.552246094,-0.001708984,-0.107177734,-0.015655518,-0.016906738,0.006866455,C,1,2026-08-22_23-06-48,22/08/2026
1,0.880952381,1,0.760368664,0.174496644,1,1,1,1,1,0,0.550170898,-0.000732422,-0.108886719,-0.013122559,-0.011505127,0.00592041,C,1,2026-08-22_23-06-48,22/08/2026
0.847272727,1,0.693430657,0.912442396,0.187919463,1,1,1,1,1,0,0.545288086,0.003295898,-0.103759766,-0.008209229,-0.002502441,0.007965088,C,1,2026-08-22_23-06-48,22/08/2026
0.841818182,1,0.817518248,0.903225806,1,1,1,1,1,1,0,0.546875,-0.005249023,-0.098388672,-0.005859375,-0.004882813,0.007568359,C,1,2026-08-22_23-06-48,22/08/2026
0.863636364,0.971088435,0.875912409,0.903225806,0.187919463,1,1,1,1,1,0,0.547729492,-0.009155273,-0.095947266,-0.011260986,-0.019042969,0.005126953,C,1,2026-08-22_23-06-48,22/08/2026
0.947272727,0.957482993,1,0.64516129,0.805369128,1,1,1,1,1,0,0.552001953,0,-0.105957031,-0.010467529,-0.023895264,0.00402832,C,1,2026-08-22_23-06-48,22/08/2026
0.949090909,0.925170068,0.875912409,0.728110599,0.805369128,1,1,1,1,1,0,0.547851563,-0.001220703,-0.118774414,-0.010620117,-0.018615723,0.001403809,C,1,2026-08-22_23-06-48,22/08/2026
0.938181818,1,0.613138686,0.958525346,0.993288591,1,1,1,1,1,0,0.545898438,0.005737305,-0.122436523,-0.012145996,-0.009338379,0.003936768,C,1,2026-08-22_23-06-48,22/08/2026
0.918181818,0.908163265,1,0.511520737,0.483221477,1,1,1,1,1,0,0.544067383,-0.000732422,-0.115966797,-0.012481689,0.00100708,0.006866455,C,1,2026-08-22_23-06-48,22/08/2026
0.912727273,0.93537415,0.99270073,0.64516129,0.805369128,1,1,1,1,1,0,0.550292969,-0.006835938,-0.105834961,-0.013519287,0.001617432,0.007446289,C,1,2026-08-22_23-06-48,22/08/2026
0.98,0.931972789,1,0.880184332,0.859060403,1,1,1,1,1,0,0.547119141,-0.004516602,-0.100341797,-0.00793457,-0.005645752,0.007110596,C,1,2026-08-22_23-06-48,22/08/2026
0.852727273,1,0.959854015,0.889400922,1,1,1,1,1,1,0,0.550415039,-0.007080078,-0.099121094,-0.007019043,-0.009765625,0.003662109,C,1,2026-08-22_23-06-48,22/08/2026
1,0.867346939,1,0.580645161,0.966442953,1,1,1,1,1,0,0.554931641,-0.003662109,-0.106933594,-0.007354736,-0.012420654,0.001312256,C,1,2026-08-22_23-06-48,22/08/2026
0.88,0.933673469,0.99270073,0.539170507,0.268456376,1,1,1,1,1,0,0.549194336,0.000976563,-0.109008789,-0.005706787,-0.010223389,0.002166748,C,1,2026-08-22_23-06-48,22/08/2026
0.84,1,0.697080292,0.741935484,0.939597315,1,1,1,1,1,0,0.548583984,0,-0.110595703,-0.006774902,-0.004943848,0.001861572,C,1,2026-08-22_23-06-48,22/08/2026
0.878181818,0.931972789,1,0.66359447,0.10738255,1,1,1,1,1,0,0.547607422,0.001953125,-0.106079102,-0.010345459,-0.006530762,0.002532959,C,1,2026-08-22_23-06-48,22/08/2026
0.952727273,0.943877551,0.99270073,0.539170507,0.845637584,1,1,1,1,1,0,0.549072266,0.00402832,-0.104492188,-0.013244629,-0.014038086,0.006225586,C,1,2026-08-22_23-06-48,22/08/2026
0.996363636,0.913265306,0.759124088,0.737327189,0.832214765,1,1,1,1,1,0,0.548095703,0.001342773,-0.108154297,-0.010345459,-0.017181396,0.006225586,C,1,2026-08-22_23-06-48,22/08/2026
0.856363636,1,0.722627737,0.986175115,0.174496644,1,1,1,1,1,0,0.547485352,0.003540039,-0.109008789,-0.005462646,-0.014984131,0.005554199,C,1,2026-08-22_23-06-48,22/08/2026
0.965454545,0.977891156,1,0.511520737,0.161073826,1,1,1,1,1,0,0.546264648,-0.001831055,-0.116821289,-0.006072998,-0.007781982,0.003936768,C,1,2026-08-22_23-06-48,22/08/2026
0.909090909,0.99829932,0.821167883,0.917050691,0.805369128,1,1,1,1,1,0,0.545166016,-0.001831055,-0.111450195,-0.005584717,0.000213623,0.006011963,C,1,2026-08-22_23-06-48,22/08/2026
0.967272727,0.957482993,1,0.617511521,0.805369128,1,1,1,1,1,0,0.548461914,-0.007446289,-0.107421875,-0.009185791,-0.000183105,0.007110596,C,1,2026-08-22_23-06-48,22/08/2026
0.909090909,0.879251701,1,0.488479263,0.805369128,1,1,1,1,1,0,0.547607422,-0.005126953,-0.102050781,-0.012145996,-0.008514404,0.007232666,C,1,2026-08-22_23-06-48,22/08/2026
1,0.855442177,1,0.617511521,0.10738255,1,1,1,1,1,0,0.549072266,-0.004638672,-0.10144043,-0.011169434,-0.013061523,0.006530762,C,1,2026-08-22_23-06-48,22/08/2026
0.881818182,1,0.799270073,1,0.912751678,1,1,1,1,1,0,0.545898438,-0.001464844,-0.110351563,-0.013763428,-0.014312744,0.00604248,C,1,2026-08-22_23-06-48,22/08/2026
0.881818182,0.870748299,0.959854015,0.875576037,0.429530201,1,1,1,1,1,0,0.549682617,0.002197266,-0.110961914,-0.012359619,-0.016113281,0.00604248,C,1,2026-08-22_23-06-48,22/08/2026
0.843636364,1,0.854014599,0.875576037,1,1,1,1,1,1,0,0.549316406,0.000732422,-0.115356445,-0.009490967,-0.013793945,0.007110596,C,1,2026-08-22_23-06-48,22/08/2026
0.627272727,1,0.98540146,0.741935484,0.44295302,1,1,1,1,1,0,0.547485352,-0.001220703,-0.116577148,-0.009643555,-0.00680542,0.006256104,C,1,2026-08-22_23-06-48,22/08/2026
0.787272727,0.836734694,0.631386861,0.622119816,0.805369128,1,1,1,1,1,0,0.547241211,0.002685547,-0.110229492,-0.008422852,0.007141113,0.004760742,C,1,2026-08-22_23-06-48,22/08/2026
0.872727273,0.982993197,0.47810219,0.953917051,1,1,1,1,1,1,0,0.543701172,-0.00012207,-0.107910156,-0.005279541,0.013763428,0.003997803,C,1,2026-08-22_23-06-48,22/08/2026
1,1,0.937956204,0.963133641,0.375838926,1,1,1,1,1,0,0.548095703,0.003662109,-0.099609375,0.00189209,0.003845215,0.004547119,C,1,2026-08-22_23-06-48,22/08/2026
1,1,1,1,1,1,1,1,1,1,0,0.549316406,-0.001098633,-0.099365234,0.001312256,-0.012878418,0.007568359,C,1,2026-08-22_23-06-48,22/08/2026
1,1,0.233576642,0.677419355,0.832214765,1,1,1,1,1,0,0.550537109,-0.011962891,-0.111083984,-0.004272461,-0.018981934,0.009307861,C,1,2026-08-22_23-06-48,22/08/2026
0.950909091,0.903061224,0.875912409,0.67281106,0.44295302,1,1,1,1,1,0,0.541015625,-0.011474609,-0.115478516,-0.015319824,-0.015594482,0.011138916,C,1,2026-08-22_23-06-48,22/08/2026
0.930909091,1,1,0.617511521,0.805369128,1,1,1,1,1,0,0.556640625,-0.009887695,-0.068969727,-0.006225586,-0.005554199,-0.002502441,C,2,2026-08-22_23-06-48,22/08/2026
0.910909091,1,1,0.737327189,0.375838926,1,1,1,1,1,0,0.551269531,-0.011352539,-0.068847656,-0.008087158,-0.008483887,0.000335693,C,2,2026-08-22_23-06-48,22/08/2026
0.881818182,0.950680272,1,0.737327189,0.348993289,1,1,1,1,1,0,0.549072266,-0.012939453,-0.073120117,-0.010620117,-0.009918213,0.005249023,C,2,2026-08-22_23-06-48,22/08/2026
0.878181818,1,1,0.649769585,0.348993289,1,1,1,1,1,0,0.553344727,-0.009643555,-0.087402344,-0.018951416,-0.013885498,0.00881958,C,2,2026-08-22_23-06-48,22/08/2026
0.872727273,1,1,0.824884793,0.805369128,1,1,1,1,1,0,0.553833008,-0.01159668,-0.087768555,-0.019348145,-0.017944336,0.007171631,C,2,2026-08-22_23-06-48,22/08/2026
1,1,1,0.824884793,0.926174497,1,1,1,1,1,0,0.553344727,-0.007202148,-0.090332031,-0.017547607,-0.022399902,0.000701904,C,2,2026-08-22_23-06-48,22/08/2026
0.989090909,1,1,0.884792627,0.161073826,1,1,1,1,1,0,0.545410156,-0.004394531,-0.092773438,-0.007354736,-0.013397217,-0.001220703,C,2,2026-08-22_23-06-48,22/08/2026
1,1,1,0.852534562,0.161073826,1,1,1,1,1,0,0.548706055,-0.008789063,-0.091064453,0.001739502,-0.004089355,-0.000762939,C,2,2026-08-22_23-06-48,22/08/2026
0.994545455,1,1,0.589861751,0.872483221,1,1,1,1,1,0,0.55859375,-0.011352539,-0.089355469,-0.00894165,-0.00604248,0.002380371,C,2,2026-08-22_23-06-48,22/08/2026
0.934545455,0.962585034,1,0.640552995,0.805369128,1,1,1,1,1,0,0.555419922,-0.004394531,-0.08984375,-0.015991211,-0.017883301,0.011535645,C,2,2026-08-22_23-06-48,22/08/2026
1,1,1,0.6359447,0.44295302,1,1,1,1,1,0,0.549072266,-0.011474609,-0.092407227,-0.015045166,-0.007202148,0.013214111,C,2,2026-08-22_23-06-48,22/08/2026
0.881818182,0.964285714,1,0.64516129,1,1,1,1,1,1,0,0.555541992,-0.01953125,-0.085083008,-0.014373779,0.001953125,0.006439209,C,2,2026-08-22_23-06-48,22/08/2026
0.994545455,1,1,0.68202765,0.859060403,1,1,1,1,1,0,0.549926758,-0.012695313,-0.081420898,-0.015106201,-9.16E-05,0.00189209,C,2,2026-08-22_23-06-48,22/08/2026
0.965454545,1,1,0.815668203,0.818791946,1,1,1,1,1,0,0.552978516,-0.01184082,-0.079956055,-0.008880615,-0.002716064,0.001220703,C,2,2026-08-22_23-06-48,22/08/2026
0.916363636,1,1,0.65437788,0.993288591,1,1,1,1,1,0,0.554321289,-0.012695313,-0.080688477,-0.009765625,-0.005187988,0.003387451,C,2,2026-08-22_23-06-48,22/08/2026
0.987272727,0.962585034,1,0.926267281,0.456375839,1,1,1,1,1,0,0.556274414,-0.013793945,-0.077880859,-0.011108398,-0.006835938,0.005065918,C,2,2026-08-22_23-06-48,22/08/2026
1,1,1,0.760368664,0.174496644,1,1,1,1,1,0,0.551757813,-0.010375977,-0.083374023,-0.018341064,-0.009277344,0.004180908,C,2,2026-08-22_23-06-48,22/08/2026
0.963636364,0.991496599,1,0.599078341,0.805369128,1,1,1,1,1,0,0.556884766,-0.00769043,-0.090087891,-0.01776123,-0.010528564,0.003143311,C,2,2026-08-22_23-06-48,22/08/2026
0.985454545,1,1,0.599078341,0.805369128,1,1,1,1,1,0,0.556518555,-0.006713867,-0.091308594,-0.010101318,-0.010528564,0.002838135,C,2,2026-08-22_23-06-48,22/08/2026
0.907272727,0.986394558,1,0.69124424,0.375838926,1,1,1,1,1,0,0.548950195,-0.007202148,-0.093383789,-0.009307861,-0.003295898,0.000488281,C,2,2026-08-22_23-06-48,22/08/2026
1,1,1,0.589861751,0.859060403,1,1,1,1,1,0,0.549682617,-0.009399414,-0.094726563,-0.003479004,0.010192871,-0.000213623,C,2,2026-08-22_23-06-48,22/08/2026
0.965454545,0.962585034,1,0.769585253,0.510067114,1,1,1,1,1,0,0.548339844,-0.013427734,-0.085327148,-0.007598877,0.018829346,-0.002746582,C,2,2026-08-22_23-06-48,22/08/2026
0.881818182,1,1,0.686635945,0.966442953,1,1,1,1,1,0,0.546630859,-0.015869141,-0.080200195,-0.019348145,0.019592285,-0.001586914,C,2,2026-08-22_23-06-48,22/08/2026
0.805454545,1,1,0.68202765,0.805369128,1,1,1,1,1,0,0.553344727,-0.009521484,-0.079223633,-0.018676758,0.010223389,0.00378418,C,2,2026-08-22_23-06-48,22/08/2026
1,0.960884354,1,0.622119816,0.33557047,1,1,1,1,1,0,0.553466797,-0.003173828,-0.076416016,-0.013000488,-0.005401611,0.006134033,C,2,2026-08-22_23-06-48,22/08/2026
0.898181818,0.870748299,0.883211679,0.723502304,0.147651007,1,1,1,1,1,0,0.551513672,-0.009033203,-0.079467773,-0.014465332,-0.005249023,0.00289917,C,2,2026-08-22_23-06-48,22/08/2026
0.876363636,0.981292517,0.649635036,0.539170507,0.805369128,1,1,1,1,1,0,0.55871582,-0.006225586,-0.086791992,-0.00378418,-0.002227783,0.00088501,C,2,2026-08-22_23-06-48,22/08/2026
0.938181818,1,1,0.889400922,0.483221477,1,1,1,1,1,0,0.558959961,-0.012695313,-0.083984375,-0.007110596,-0.000793457,-0.000701904,C,2,2026-08-22_23-06-48,22/08/2026
0.934545455,0.977891156,0.98540146,0.728110599,0.859060403,1,1,1,1,1,0,0.554199219,-0.005859375,-0.082397461,-0.012939453,-0.004638672,0.003448486,C,2,2026-08-22_23-06-48,22/08/2026
1,1,1,0.69124424,0.993288591,1,1,1,1,1,0,0.551025391,-0.002319336,-0.076049805,-0.014556885,-0.00680542,0.008789063,C,2,2026-08-22_23-06-48,22/08/2026
0.92,0.909863946,0.875912409,0.428571429,0,1,1,1,1,1,0,0.554931641,-0.002807617,-0.074584961,-0.01763916,-0.010437012,0.014038086,C,2,2026-08-22_23-06-48,22/08/2026
0.850909091,0.962585034,0.740875912,0.502304147,0.88590604,1,1,1,1,1,0,0.556518555,-0.006469727,-0.061889648,-0.02520752,-0.024505615,0.016174316,C,2,2026-08-22_23-06-48,22/08/2026
0.94,1,0.759124088,0.589861751,0.979865772,1,1,1,1,1,0,0.553100586,-0.013305664,-0.079589844,-0.016845703,-0.041107178,0.015045166,C,2,2026-08-22_23-06-48,22/08/2026
1,0.914965986,0.937956204,0.442396313,0.832214765,1,1,1,1,1,0,0.553955078,-0.012084961,-0.087646484,-0.013336182,-0.03894043,0.011016846,C,2,2026-08-22_23-06-48,22/08/2026
0.790909091,0.971088435,0.704379562,0.626728111,0.805369128,1,1,1,1,1,0,0.551757813,-0.009033203,-0.08581543,-0.012268066,-0.0184021,0.005340576,C,2,2026-08-22_23-06-48,22/08/2026
1,1,1,0.474654378,0.805369128,1,1,1,1,1,0,0.552368164,-0.010009766,-0.088134766,-0.011413574,0.004882813,0.003234863,C,2,2026-08-22_23-06-48,22/08/2026
0.965454545,1,0.945255474,0.746543779,0.268456376,1,1,1,1,1,0,0.55456543,-0.012939453,-0.074707031,-0.007537842,0.00177002,0.007843018,C,2,2026-08-22_23-06-48,22/08/2026
1,0.993197279,0.941605839,0.465437788,0.966442953,1,1,1,1,1,0,0.556274414,-0.019042969,-0.07409668,-0.009918213,-0.014770508,0.011138916,C,2,2026-08-22_23-06-48,22/08/2026
0.950909091,0.986394558,1,0.838709677,0.805369128,1,1,1,1,1,0,0.551635742,-0.022094727,-0.079101563,-0.014648438,-0.03302002,0.010009766,C,2,2026-08-22_23-06-48,22/08/2026
0.985454545,1,1,0.824884793,0.805369128,1,1,1,1,1,0,0.553222656,-0.020629883,-0.088867188,-0.014953613,-0.026000977,0.006011963,C,2,2026-08-22_23-06-48,22/08/2026
1,1,1,1,1,1,1,1,1,1,1,0.54675293,-0.001098633,-0.096069336,-0.007843018,-0.023834229,0.003295898,C,3,2026-08-22_23-06-48,22/08/2026
1,1,1,0.815668203,0.805369128,1,1,1,1,1,1,0.545410156,-0.001464844,-0.101074219,-0.007629395,-0.017211914,0.007965088,C,3,2026-08-22_23-06-48,22/08/2026
1,1,0.99270073,1,0.389261745,1,1,1,1,1,1,0.552124023,0.002807617,-0.102172852,-0.011383057,-0.01171875,0.013427734,C,3,2026-08-22_23-06-48,22/08/2026
1,1,1,1,0.805369128,1,1,1,1,1,1,0.551269531,-0.007080078,-0.100585938,-0.021392822,-0.009338379,0.006896973,C,3,2026-08-22_23-06-48,22/08/2026
1,1,0.996350365,0.824884793,0.805369128,1,1,1,1,1,1,0.554321289,0.005981445,-0.100097656,-0.026855469,-0.020568848,0.006500244,C,3,2026-08-22_23-06-48,22/08/2026
1,1,0.99270073,0.98156682,0.375838926,1,1,1,1,1,1,0.547119141,0.00402832,-0.108032227,-0.019439697,-0.014892578,0.005310059,C,3,2026-08-22_23-06-48,22/08/2026
1,0.996598639,1,1,1,1,1,1,1,1,1,0.546142578,0.000854492,-0.114990234,-0.020233154,-0.006469727,0.001586914,C,3,2026-08-22_23-06-48,22/08/2026
1,1,1,0.958525346,0.228187919,1,1,1,1,1,1,0.542114258,0.003417969,-0.106201172,-0.029418945,0.007568359,-0.001708984,C,3,2026-08-22_23-06-48,22/08/2026
1,1,1,0.921658986,0.496644295,1,1,1,1,1,1,0.551147461,0.008422852,-0.10534668,-0.02355957,0.009094238,0.001983643,C,3,2026-08-22_23-06-48,22/08/2026
1,1,1,0.870967742,1,1,1,1,1,1,0,0.557128906,0.010620117,-0.095825195,-0.011962891,0.000183105,0.008209229,C,3,2026-08-22_23-06-48,22/08/2026
1,1,0.908759124,0.917050691,0.456375839,1,1,1,1,1,0,0.549560547,0.003662109,-0.091308594,-0.007171631,-0.004150391,0.00479126,C,3,2026-08-22_23-06-48,22/08/2026
1,1,1,0.792626728,0.859060403,1,1,1,1,1,0,0.545166016,0.000854492,-0.09777832,-0.015686035,0.00100708,-0.00177002,C,3,2026-08-22_23-06-48,22/08/2026
1,0.989795918,0.99270073,0.875576037,0.805369128,1,1,1,1,1,0,0.548828125,0.00402832,-0.090209961,-0.018737793,0.004516602,0.001434326,C,3,2026-08-22_23-06-48,22/08/2026
1,1,1,0.870967742,0.322147651,1,1,1,1,1,0,0.549072266,0.00390625,-0.088745117,-0.016357422,0.000549316,0.006286621,C,3,2026-08-22_23-06-48,22/08/2026
1,1,0.98540146,1,0.805369128,1,1,1,1,1,0,0.548339844,-0.001220703,-0.093017578,-0.024353027,0.000213623,0.0050354,C,3,2026-08-22_23-06-48,22/08/2026
1,1,1,0.898617512,0.805369128,1,1,1,1,1,0,0.551269531,0.003540039,-0.091674805,-0.026550293,0.00100708,0.003723145,C,3,2026-08-22_23-06-48,22/08/2026
1,1,1,1,0.805369128,1,1,1,1,1,0,0.552856445,0.008666992,-0.091430664,-0.01651001,-0.004547119,0.00289917,C,3,2026-08-22_23-06-48,22/08/2026
1,1,1,0.870967742,0.214765101,1,1,1,1,1,0,0.552734375,0.003417969,-0.096679688,-0.01348877,-0.011993408,0.000579834,C,3,2026-08-22_23-06-48,22/08/2026
1,1,1,1,0.805369128,1,1,1,1,1,0,0.554077148,0.003662109,-0.106689453,-0.013275146,-0.013153076,0.001403809,C,3,2026-08-22_23-06-48,22/08/2026
1,1,0.959854015,1,0.818791946,1,1,1,1,1,0,0.555664063,0.021484375,-0.094360352,-0.010437012,-0.022583008,0.011108398,C,3,2026-08-22_23-06-48,22/08/2026
1,1,0.945255474,0.788018433,0.805369128,1,1,1,1,1,0,0.551269531,-0.004394531,-0.109375,-0.020202637,0.001434326,0.009613037,C,3,2026-08-22_23-06-48,22/08/2026
1,1,0.901459854,1,0.872483221,1,1,1,1,1,0,0.548339844,0.006469727,-0.093261719,-0.018341064,0.000640869,0.007843018,C,3,2026-08-22_23-06-48,22/08/2026
1,1,1,0.953917051,0.805369128,1,1,1,1,1,0,0.555664063,0.006835938,-0.087036133,-0.007598877,0.00289917,0.007781982,C,3,2026-08-22_23-06-48,22/08/2026
1,1,1,0.764976959,0.805369128,1,1,1,1,1,0,0.552001953,-0.001464844,-0.088256836,-0.001739502,0.004547119,0.00390625,C,3,2026-08-22_23-06-48,22/08/2026
0.985454545,1,1,0.857142857,0.187919463,1,1,1,1,1,0,0.55065918,0.000854492,-0.08581543,-0.013671875,0.000671387,-0.000610352,C,3,2026-08-22_23-06-48,22/08/2026
1,0.959183673,1,0.576036866,0.187919463,1,1,1,1,1,0,0.552001953,0.004516602,-0.087036133,-0.00692749,-0.001220703,0.002593994,C,3,2026-08-22_23-06-48,22/08/2026
1,1,0.99270073,0.769585253,0.859060403,1,1,1,1,1,0,0.553955078,-0.003417969,-0.091064453,-0.011291504,-0.007080078,0.002838135,C,3,2026-08-22_23-06-48,22/08/2026
1,1,1,0.963133641,0.805369128,1,1,1,1,1,0,0.550537109,0.00378418,-0.08984375,-0.017730713,-0.010864258,0.004455566,C,3,2026-08-22_23-06-48,22/08/2026
1,1,1,0.617511521,0.805369128,1,1,1,1,1,0,0.552124023,0.009155273,-0.095458984,-0.01739502,-0.014190674,0.006195068,C,3,2026-08-22_23-06-48,22/08/2026
1,0.93537415,1,0.751152074,0.805369128,1,1,1,1,1,0,0.549194336,0.006225586,-0.099121094,-0.017303467,-0.012817383,0.005859375,C,3,2026-08-22_23-06-48,22/08/2026
1,0.965986395,1,0.797235023,0.44295302,1,1,1,1,1,0,0.547363281,0.006713867,-0.102539063,-0.011627197,-0.005401611,0.007019043,C,3,2026-08-22_23-06-48,22/08/2026
1,0.933673469,1,0.612903226,0.375838926,1,1,1,1,1,0,0.549194336,0.005615234,-0.104736328,-0.01159668,0.000152588,0.00378418,C,3,2026-08-22_23-06-48,22/08/2026
1,1,1,0.714285714,0.979865772,1,1,1,1,1,0,0.55065918,0.003540039,-0.103515625,-0.017059326,0.000915527,0.003326416,C,3,2026-08-22_23-06-48,22/08/2026
1,1,0.864963504,1,0.805369128,1,1,1,1,1,0,0.551879883,0.006225586,-0.094604492,-0.019958496,0.000762939,0.003936768,C,3,2026-08-22_23-06-48,22/08/2026
1,1,1,0.566820276,0.805369128,1,1,1,1,1,0,0.553222656,0.005249023,-0.088378906,-0.016845703,0.002868652,0.008758545,C,3,2026-08-22_23-06-48,22/08/2026
0.94,1,0.868613139,1,0.872483221,1,1,1,1,1,0,0.551391602,-0.003051758,-0.083618164,-0.015625,0.006225586,0.010070801,C,3,2026-08-22_23-06-48,22/08/2026
1,1,1,1,0.805369128,1,1,1,1,1,0,0.549560547,0.000610352,-0.082641602,-0.013885498,0.003143311,0.007598877,C,3,2026-08-22_23-06-48,22/08/2026
0.994545455,1,0.927007299,0.935483871,0.966442953,1,1,1,1,1,0,0.549804688,-0.001464844,-0.076049805,-0.00680542,-0.005584717,0.004638672,C,3,2026-08-22_23-06-48,22/08/2026
1,1,0.890510949,0.97235023,0.483221477,1,1,1,1,1,0,0.554443359,-0.005126953,-0.078735352,-0.012420654,-0.011291504,0.000701904,C,3,2026-08-22_23-06-48,22/08/2026
1,1,1,0.737327189,1,1,1,1,1,1,0,0.553344727,0.000732422,-0.087646484,-0.011932373,-0.016845703,0.001831055,C,3,2026-08-22_23-06-48,22/08/2026
1,1,1,0.783410138,0.44295302,1,1,1,1,1,0,0.553222656,-0.01159668,-0.087036133,-0.016601563,-0.011108398,0.005187988,C,4,2026-08-22_23-06-48,22/08/2026
1,1,1,0.861751152,0.44295302,1,1,1,1,1,0,0.550170898,-0.011230469,-0.090332031,-0.012298584,-0.013946533,0.004180908,C,4,2026-08-22_23-06-48,22/08/2026
1,0.962585034,1,0.815668203,0.993288591,1,1,1,1,1,0,0.546020508,-0.011962891,-0.090942383,-0.009674072,-0.010742188,0.000701904,C,4,2026-08-22_23-06-48,22/08/2026
0.863636364,1,0.791970803,1,0.88590604,1,1,1,1,1,0,0.551391602,-0.005493164,-0.096801758,-0.012634277,-0.008666992,-0.001434326,C,4,2026-08-22_23-06-48,22/08/2026
1,1,1,0.520737327,0.953020134,1,1,1,1,1,0,0.553222656,0.00012207,-0.097290039,-0.008728027,-0.009979248,0.00177002,C,4,2026-08-22_23-06-48,22/08/2026
0.949090909,1,1,1,0.805369128,1,1,1,1,1,0,0.550292969,-0.0078125,-0.097412109,-0.011444092,-0.007598877,0.006134033,C,4,2026-08-22_23-06-48,22/08/2026
1,1,1,0.589861751,0.805369128,1,1,1,1,1,0,0.54699707,-0.002807617,-0.099853516,-0.014465332,0.000152588,0.007385254,C,4,2026-08-22_23-06-48,22/08/2026
1,0.955782313,1,0.65437788,0.805369128,1,1,1,1,1,0,0.550292969,-0.008789063,-0.097290039,-0.011108398,0.003540039,0.006774902,C,4,2026-08-22_23-06-48,22/08/2026
0.927272727,1,0.835766423,1,0.979865772,1,1,1,1,1,0,0.552246094,-0.009521484,-0.088867188,-0.010528564,-0.000579834,0.004302979,C,4,2026-08-22_23-06-48,22/08/2026
1,1,1,0.829493088,0.805369128,1,1,1,1,1,0,0.552001953,-0.012084961,-0.081787109,-0.006103516,-0.003204346,0.002746582,C,4,2026-08-22_23-06-48,22/08/2026
1,1,1,0.861751152,0.214765101,1,1,1,1,1,0,0.549560547,-0.01184082,-0.08203125,-0.006164551,-0.002258301,0.001556396,C,4,2026-08-22_23-06-48,22/08/2026
1,0.986394558,1,0.580645161,0.805369128,1,1,1,1,1,0,0.55078125,-0.011474609,-0.089233398,-0.004852295,-0.000762939,0.003723145,C,4,2026-08-22_23-06-48,22/08/2026
1,0.993197279,1,0.737327189,0.483221477,1,1,1,1,1,0,0.556152344,-0.011108398,-0.08581543,-0.006347656,-0.004760742,0.004821777,C,4,2026-08-22_23-06-48,22/08/2026
1,1,0.99270073,0.737327189,0.859060403,1,1,1,1,1,0,0.553466797,-0.016235352,-0.08972168,-0.012695313,-0.009735107,0.00302124,C,4,2026-08-22_23-06-48,22/08/2026
1,0.959183673,1,0.875576037,0.161073826,1,1,1,1,1,0,0.551757813,-0.008789063,-0.091064453,-0.016479492,-0.009216309,0.001617432,C,4,2026-08-22_23-06-48,22/08/2026
0.947272727,1,0.682481752,1,0.805369128,1,1,1,1,1,0,0.552734375,-0.006713867,-0.08996582,-0.011352539,-0.011291504,0.003204346,C,4,2026-08-22_23-06-48,22/08/2026
1,0.94047619,1,0.617511521,0.281879195,1,1,1,1,1,0,0.549194336,-0.008178711,-0.093261719,-0.008392334,-0.010253906,0.00289917,C,4,2026-08-22_23-06-48,22/08/2026
1,0.991496599,1,0.838709677,0.10738255,1,1,1,1,1,0,0.549682617,-0.010009766,-0.093994141,-0.010345459,-0.006713867,0.001617432,C,4,2026-08-22_23-06-48,22/08/2026
1,0.977891156,1,0.728110599,0.805369128,1,1,1,1,1,0,0.552001953,-0.008422852,-0.093505859,-0.010925293,-0.011230469,0.001098633,C,4,2026-08-22_23-06-48,22/08/2026
0.976363636,1,1,0.612903226,0.805369128,1,1,1,1,1,0,0.551879883,-0.007202148,-0.085327148,-0.012664795,-0.013061523,0.003295898,C,4,2026-08-22_23-06-48,22/08/2026
0.84,1,0.759124088,1,1,1,1,1,1,1,0,0.548583984,-0.005004883,-0.082275391,-0.014129639,-0.012145996,0.004516602,C,4,2026-08-22_23-06-48,22/08/2026
0.976363636,1,1,0.769585253,0.281879195,1,1,1,1,1,0,0.55090332,-0.01171875,-0.083984375,-0.010375977,-0.008331299,0.005462646,C,4,2026-08-22_23-06-48,22/08/2026
1,1,0.740875912,1,0.966442953,1,1,1,1,1,0,0.549316406,-0.009277344,-0.090209961,-0.012390137,-0.007537842,0.003173828,C,4,2026-08-22_23-06-48,22/08/2026
0.958181818,1,0.821167883,1,0.214765101,1,1,1,1,1,0,0.553588867,-0.010864258,-0.092163086,-0.010925293,-0.008422852,0.004760742,C,4,2026-08-22_23-06-48,22/08/2026
0.94,1,0.875912409,0.806451613,0.456375839,1,1,1,1,1,0,0.553100586,-0.011474609,-0.094360352,-0.017303467,-0.008026123,0.004852295,C,4,2026-08-22_23-06-48,22/08/2026
1,1,0.97810219,1,0.322147651,1,1,1,1,1,0,0.555053711,-0.00793457,-0.092895508,-0.013580322,-0.007720947,0.005889893,C,4,2026-08-22_23-06-48,22/08/2026
0.934545455,1,0.777372263,1,1,1,1,1,1,1,0,0.554199219,-0.010742188,-0.090209961,-0.016174316,-0.009796143,0.004577637,C,4,2026-08-22_23-06-48,22/08/2026
1,0.93537415,1,0.737327189,1,1,1,1,1,1,0,0.551269531,-0.00390625,-0.091430664,-0.011657715,-0.004577637,0.003417969,C,4,2026-08-22_23-06-48,22/08/2026
1,1,0.996350365,0.820276498,0.389261745,1,1,1,1,1,0,0.550537109,-0.007202148,-0.093994141,-0.004211426,-0.001312256,0.003997803,C,4,2026-08-22_23-06-48,22/08/2026
0.972727273,1,1,1,1,1,1,1,1,1,0,0.552246094,-0.010253906,-0.092529297,-0.006408691,0.0027771,0.005096436,C,4,2026-08-22_23-06-48,22/08/2026
0.989090909,1,0.875912409,1,0.805369128,1,1,1,1,1,0,0.554931641,-0.012084961,-0.088623047,-0.016357422,0.003143311,0.007293701,C,4,2026-08-22_23-06-48,22/08/2026
1,0.989795918,1,0.649769585,0.322147651,1,1,1,1,1,0,0.553710938,-0.010986328,-0.090454102,-0.02255249,-0.008605957,0.013092041,C,4,2026-08-22_23-06-48,22/08/2026
1,1,0.839416058,1,0.912751678,1,1,1,1,1,0,0.552734375,-0.01171875,-0.085449219,-0.023376465,-0.012145996,0.008728027,C,4,2026-08-22_23-06-48,22/08/2026
0.98,0.989795918,1,0.732718894,0.805369128,1,1,1,1,1,0,0.547973633,-0.012451172,-0.085449219,-0.019683838,-0.007324219,0.005401611,C,4,2026-08-22_23-06-48,22/08/2026
0.978181818,0.991496599,0.934306569,0.884792627,0.859060403,1,1,1,1,1,0,0.55065918,-0.006469727,-0.082641602,-0.008422852,-0.001983643,0.003540039,C,4,2026-08-22_23-06-48,22/08/2026
0.92,1,0.839416058,0.870967742,0.805369128,1,1,1,1,1,0,0.554199219,-0.011230469,-0.083984375,-0.001708984,-0.004425049,0.00177002,C,4,2026-08-22_23-06-48,22/08/2026
1,0.962585034,0.99270073,0.815668203,0.295302013,1,1,1,1,1,0,0.5546875,-0.011474609,-0.085205078,-0.007415771,-0.008666992,0.001739502,C,4,2026-08-22_23-06-48,22/08/2026
0.996363636,0.952380952,1,0.67281106,0.241610738,1,1,1,1,1,0,0.551269531,-0.004150391,-0.089233398,-0.008666992,-0.009033203,0.005737305,C,4,2026-08-22_23-06-48,22/08/2026
0.843636364,1,0.423357664,1,0.939597315,1,1,1,1,1,0,0.550292969,-0.001831055,-0.083251953,-0.007202148,-0.006103516,0.010955811,C,4,2026-08-22_23-06-48,22/08/2026
1,0.965986395,1,0.66359447,0.805369128,1,1,1,1,1,0,0.551879883,-0.003417969,-0.086425781,-0.007537842,-0.005859375,0.012420654,C,4,2026-08-22_23-06-48,22/08/2026
1,1,1,1,0.120805369,1,0,0,1,1,1,-3.05E-05,-3.05E-05,-3.05E-05,-3.05E-05,-3.05E-05,-3.05E-05,D,0,2026-08-22_23-06-48,22/08/2026
0.883636364,1,0.759124088,1,0.429530201,1,0,0,1,1,1,-3.05E-05,-3.05E-05,-3.05E-05,-3.05E-05,-3.05E-05,-3.05E-05,D,0,2026-08-22_23-06-48,22/08/2026
0.94,1,0.759124088,1,0.147651007,1,0,0,1,1,1,-3.05E-05,-3.05E-05,-3.05E-05,-3.05E-05,-3.05E-05,-3.05E-05,D,0,2026-08-22_23-06-48,22/08/2026
0.969090909,1,0.682481752,1,0.147651007,1,0,0,1,1,1,-3.05E-05,-3.05E-05,-3.05E-05,-3.05E-05,-3.05E-05,-3.05E-05,D,0,2026-08-22_23-06-48,22/08/2026
0.987272727,1,1,1,0.268456376,1,0,0,1,1,1,-3.05E-05,-3.05E-05,-3.05E-05,-3.05E-05,-3.05E-05,-3.05E-05,D,0,2026-08-22_23-06-48,22/08/2026
0.914545455,1,1,1,0.993288591,1,0,0,1,1,1,-3.05E-05,-3.05E-05,-3.05E-05,-3.05E-05,-3.05E-05,-3.05E-05,D,0,2026-08-22_23-06-48,22/08/2026
0.941818182,1,0.854014599,1,0.805369128,1,0,0,1,1,1,-3.05E-05,-3.05E-05,-3.05E-05,-3.05E-05,-3.05E-05,-3.05E-05,D,0,2026-08-22_23-06-48,22/08/2026
0.941818182,1,0.843065693,1,0.805369128,1,0,0,1,1,1,-3.05E-05,-3.05E-05,-3.05E-05,-3.05E-05,-3.05E-05,-3.05E-05,D,0,2026-08-22_23-06-48,22/08/2026
0.881818182,1,0.770072993,1,0.805369128,1,0,0,1,1,1,-3.05E-05,-3.05E-05,-3.05E-05,-3.05E-05,-3.05E-05,-3.05E-05,D,0,2026-08-22_23-06-48,22/08/2026
0.943636364,1,0.875912409,1,0.805369128,1,0,0,1,1,1,-3.05E-05,-3.05E-05,-3.05E-05,-3.05E-05,-3.05E-05,-3.05E-05,D,0,2026-08-22_23-06-48,22/08/2026
0.878181818,1,0.835766423,1,0.805369128,1,0,0,1,1,1,-3.05E-05,-3.05E-05,-3.05E-05,-3.05E-05,-3.05E-05,-3.05E-05,D,0,2026-08-22_23-06-48,22/08/2026
0.914545455,1,0.941605839,1,0.845637584,1,0,0,1,1,1,-3.05E-05,-3.05E-05,-3.05E-05,-3.05E-05,-3.05E-05,-3.05E-05,D,0,2026-08-22_23-06-48,22/08/2026
0.94,1,0.875912409,1,0.429530201,1,0,0,1,1,1,-3.05E-05,-3.05E-05,-3.05E-05,-3.05E-05,-3.05E-05,-3.05E-05,D,0,2026-08-22_23-06-48,22/08/2026
0.950909091,1,0.770072993,1,0.872483221,1,0,0,1,1,1,-3.05E-05,-3.05E-05,-3.05E-05,-3.05E-05,-3.05E-05,-3.05E-05,D,0,2026-08-22_23-06-48,22/08/2026
0.881818182,1,0.901459854,1,0.818791946,1,0,0,1,1,1,-3.05E-05,-3.05E-05,-3.05E-05,-3.05E-05,-3.05E-05,-3.05E-05,D,0,2026-08-22_23-06-48,22/08/2026
0.890909091,1,0.897810219,1,0.805369128,1,0,0,1,1,1,-3.05E-05,-3.05E-05,-3.05E-05,-3.05E-05,-3.05E-05,-3.05E-05,D,0,2026-08-22_23-06-48,22/08/2026
0.943636364,1,0.857664234,1,0.308724832,1,0,0,1,1,1,-3.05E-05,-3.05E-05,-3.05E-05,-3.05E-05,-3.05E-05,-3.05E-05,D,0,2026-08-22_23-06-48,22/08/2026
0.930909091,1,1,1,0.348993289,1,0,0,1,1,1,-3.05E-05,-3.05E-05,-3.05E-05,-3.05E-05,-3.05E-05,-3.05E-05,D,0,2026-08-22_23-06-48,22/08/2026
0.907272727,1,0.740875912,1,0.805369128,1,0,0,1,1,1,-3.05E-05,-3.05E-05,-3.05E-05,-3.05E-05,-3.05E-05,-3.05E-05,D,0,2026-08-22_23-06-48,22/08/2026
0.874545455,1,0.864963504,1,0.510067114,1,0,0,1,1,1,-3.05E-05,-3.05E-05,-3.05E-05,-3.05E-05,-3.05E-05,-3.05E-05,D,0,2026-08-22_23-06-48,22/08/2026
0.847272727,1,0.857664234,1,1,1,0,0,1,1,1,-3.05E-05,-3.05E-05,-3.05E-05,-3.05E-05,-3.05E-05,-3.05E-05,D,0,2026-08-22_23-06-48,22/08/2026
0.94,1,0.901459854,1,0.308724832,1,0,0,1,1,1,-3.05E-05,-3.05E-05,-3.05E-05,-3.05E-05,-3.05E-05,-3.05E-05,D,0,2026-08-22_23-06-48,22/08/2026
0.94,1,0.912408759,1,0.805369128,1,0,0,1,1,1,-3.05E-05,-3.05E-05,-3.05E-05,-3.05E-05,-3.05E-05,-3.05E-05,D,0,2026-08-22_23-06-48,22/08/2026
0.970909091,1,0.974452555,1,0.832214765,1,0,0,1,1,1,-3.05E-05,-3.05E-05,-3.05E-05,-3.05E-05,-3.05E-05,-3.05E-05,D,0,2026-08-22_23-06-48,22/08/2026
0.9,1,0.897810219,1,0.805369128,1,0,0,1,1,1,-3.05E-05,-3.05E-05,-3.05E-05,-3.05E-05,-3.05E-05,-3.05E-05,D,0,2026-08-22_23-06-48,22/08/2026
0.885454545,1,0.927007299,1,0.805369128,1,0,0,1,1,1,-3.05E-05,-3.05E-05,-3.05E-05,-3.05E-05,-3.05E-05,-3.05E-05,D,0,2026-08-22_23-06-48,22/08/2026
0.876363636,1,0.817518248,1,0.805369128,1,0,0,1,1,1,-3.05E-05,-3.05E-05,-3.05E-05,-3.05E-05,-3.05E-05,-3.05E-05,D,0,2026-08-22_23-06-48,22/08/2026
0.903636364,1,0.817518248,1,0.536912752,1,0,0,1,1,1,-3.05E-05,-3.05E-05,-3.05E-05,-3.05E-05,-3.05E-05,-3.05E-05,D,0,2026-08-22_23-06-48,22/08/2026
0.869090909,1,1,1,0.912751678,1,0,0,1,1,1,-3.05E-05,-3.05E-05,-3.05E-05,-3.05E-05,-3.05E-05,-3.05E-05,D,0,2026-08-22_23-06-48,22/08/2026
0.949090909,1,0.821167883,1,0.872483221,1,0,0,1,1,1,-3.05E-05,-3.05E-05,-3.05E-05,-3.05E-05,-3.05E-05,-3.05E-05,D,0,2026-08-22_23-06-48,22/08/2026
0.881818182,1,0.635036496,1,0.805369128,1,0,0,1,1,1,-3.05E-05,-3.05E-05,-3.05E-05,-3.05E-05,-3.05E-05,-3.05E-05,D,0,2026-08-22_23-06-48,22/08/2026
1,1,0.817518248,1,0.805369128,1,0,0,1,1,1,-3.05E-05,-3.05E-05,-3.05E-05,-3.05E-05,-3.05E-05,-3.05E-05,D,0,2026-08-22_23-06-48,22/08/2026
0.930909091,1,0.886861314,1,0.429530201,1,0,0,1,1,1,-3.05E-05,-3.05E-05,-3.05E-05,-3.05E-05,-3.05E-05,-3.05E-05,D,0,2026-08-22_23-06-48,22/08/2026
0.910909091,1,0.770072993,1,0.926174497,1,0,0,1,1,1,-3.05E-05,-3.05E-05,-3.05E-05,-3.05E-05,-3.05E-05,-3.05E-05,D,0,2026-08-22_23-06-48,22/08/2026
0.963636364,1,0.755474453,1,0.966442953,1,0,0,1,1,1,-3.05E-05,-3.05E-05,-3.05E-05,-3.05E-05,-3.05E-05,-3.05E-05,D,0,2026-08-22_23-06-48,22/08/2026
0.869090909,1,0.934306569,1,0.805369128,1,0,0,1,1,1,-3.05E-05,-3.05E-05,-3.05E-05,-3.05E-05,-3.05E-05,-3.05E-05,D,0,2026-08-22_23-06-48,22/08/2026
0.985454545,1,1,1,0.805369128,1,0,0,1,1,1,-3.05E-05,-3.05E-05,-3.05E-05,-3.05E-05,-3.05E-05,-3.05E-05,D,0,2026-08-22_23-06-48,22/08/2026
1,1,0.857664234,1,0.805369128,1,0,0,1,1,1,-3.05E-05,-3.05E-05,-3.05E-05,-3.05E-05,-3.05E-05,-3.05E-05,D,0,2026-08-22_23-06-48,22/08/2026
0.998181818,1,0.912408759,1,0.805369128,1,0,0,1,1,1,-3.05E-05,-3.05E-05,-3.05E-05,-3.05E-05,-3.05E-05,-3.05E-05,D,0,2026-08-22_23-06-48,22/08/2026
0.943636364,1,0.967153285,1,0.805369128,1,0,0,1,1,1,-3.05E-05,-3.05E-05,-3.05E-05,-3.05E-05,-3.05E-05,-3.05E-05,D,0,2026-08-22_23-06-48,22/08/2026
0.989090909,1,1,1,0.939597315,1,0,0,1,1,1,-3.05E-05,-3.05E-05,-3.05E-05,-3.05E-05,-3.05E-05,-3.05E-05,D,1,2026-08-22_23-06-48,22/08/2026
1,1,1,1,0.805369128,1,0,0,1,1,1,-3.05E-05,-3.05E-05,-3.05E-05,-3.05E-05,-3.05E-05,-3.05E-05,D,1,2026-08-22_23-06-48,22/08/2026
1,1,1,1,0.805369128,1,0,0,1,1,1,-3.05E-05,-3.05E-05,-3.05E-05,-3.05E-05,-3.05E-05,-3.05E-05,D,1,2026-08-22_23-06-48,22/08/2026
1,0.986394558,1,1,0.805369128,1,0,0,1,1,1,-3.05E-05,-3.05E-05,-3.05E-05,-3.05E-05,-3.05E-05,-3.05E-05,D,1,2026-08-22_23-06-48,22/08/2026
1,1,1,1,0.805369128,1,0,0,1,1,1,-3.05E-05,-3.05E-05,-3.05E-05,-3.05E-05,-3.05E-05,-3.05E-05,D,1,2026-08-22_23-06-48,22/08/2026
1,0.99829932,1,1,0.805369128,1,0,0,1,1,1,-3.05E-05,-3.05E-05,-3.05E-05,-3.05E-05,-3.05E-05,-3.05E-05,D,1,2026-08-22_23-06-48,22/08/2026
0.996363636,1,1,1,0.805369128,1,0,0,1,1,1,-3.05E-05,-3.05E-05,-3.05E-05,-3.05E-05,-3.05E-05,-3.05E-05,D,1,2026-08-22_23-06-48,22/08/2026
1,1,1,1,0.805369128,1,0,0,1,1,1,-3.05E-05,-3.05E-05,-3.05E-05,-3.05E-05,-3.05E-05,-3.05E-05,D,1,2026-08-22_23-06-48,22/08/2026
1,0.954081633,1,1,0.805369128,1,0,0,1,1,1,-3.05E-05,-3.05E-05,-3.05E-05,-3.05E-05,-3.05E-05,-3.05E-05,D,1,2026-08-22_23-06-48,22/08/2026
1,1,1,1,0.483221477,1,0,0,1,1,1,-3.05E-05,-3.05E-05,-3.05E-05,-3.05E-05,-3.05E-05,-3.05E-05,D,1,2026-08-22_23-06-48,22/08/2026
0.978181818,0.994897959,1,1,0.268456376,1,0,0,1,1,1,-3.05E-05,-3.05E-05,-3.05E-05,-3.05E-05,-3.05E-05,-3.05E-05,D,1,2026-08-22_23-06-48,22/08/2026
1,1,1,1,0.510067114,1,0,0,1,1,1,-3.05E-05,-3.05E-05,-3.05E-05,-3.05E-05,-3.05E-05,-3.05E-05,D,1,2026-08-22_23-06-48,22/08/2026
1,1,1,1,0.805369128,1,0,0,1,1,1,-3.05E-05,-3.05E-05,-3.05E-05,-3.05E-05,-3.05E-05,-3.05E-05,D,1,2026-08-22_23-06-48,22/08/2026
0.96,0.945578231,1,1,0.805369128,1,0,0,1,1,1,-3.05E-05,-3.05E-05,-3.05E-05,-3.05E-05,-3.05E-05,-3.05E-05,D,1,2026-08-22_23-06-48,22/08/2026
1,0.971088435,1,1,1,1,0,0,1,1,1,-3.05E-05,-3.05E-05,-3.05E-05,-3.05E-05,-3.05E-05,-3.05E-05,D,1,2026-08-22_23-06-48,22/08/2026
0.998181818,0.93877551,1,1,0.33557047,1,0,0,1,1,1,-3.05E-05,-3.05E-05,-3.05E-05,-3.05E-05,-3.05E-05,-3.05E-05,D,1,2026-08-22_23-06-48,22/08/2026
0.881818182,1,1,1,0.295302013,1,0,0,1,1,1,-3.05E-05,-3.05E-05,-3.05E-05,-3.05E-05,-3.05E-05,-3.05E-05,D,1,2026-08-22_23-06-48,22/08/2026
1,0.965986395,1,1,0.268456376,1,0,0,1,1,1,-3.05E-05,-3.05E-05,-3.05E-05,-3.05E-05,-3.05E-05,-3.05E-05,D,1,2026-08-22_23-06-48,22/08/2026
0.969090909,0.918367347,1,1,0.805369128,1,0,0,1,1,1,-3.05E-05,-3.05E-05,-3.05E-05,-3.05E-05,-3.05E-05,-3.05E-05,D,1,2026-08-22_23-06-48,22/08/2026
0.974545455,1,1,1,0.416107383,1,0,0,1,1,1,-3.05E-05,-3.05E-05,-3.05E-05,-3.05E-05,-3.05E-05,-3.05E-05,D,1,2026-08-22_23-06-48,22/08/2026
0.987272727,1,1,1,0.805369128,1,0,0,1,1,1,-3.05E-05,-3.05E-05,-3.05E-05,-3.05E-05,-3.05E-05,-3.05E-05,D,1,2026-08-22_23-06-48,22/08/2026
1,1,1,1,0.832214765,1,0,0,1,1,1,-3.05E-05,-3.05E-05,-3.05E-05,-3.05E-05,-3.05E-05,-3.05E-05,D,1,2026-08-22_23-06-48,22/08/2026
1,1,1,1,0.416107383,1,0,0,1,1,1,-3.05E-05,-3.05E-05,-3.05E-05,-3.05E-05,-3.05E-05,-3.05E-05,D,1,2026-08-22_23-06-48,22/08/2026
0.94,1,1,1,0.268456376,1,0,0,1,1,1,-3.05E-05,-3.05E-05,-3.05E-05,-3.05E-05,-3.05E-05,-3.05E-05,D,1,2026-08-22_23-06-48,22/08/2026
0.949090909,1,1,1,0.510067114,1,1,1,1,1,1,0.540649414,-0.024780273,-0.123168945,-0.03414917,-0.00213623,-0.002563477,D,1,2026-08-22_23-06-48,22/08/2026
0.956363636,1,1,1,0.805369128,1,0,0,1,1,1,-3.05E-05,-3.05E-05,-3.05E-05,-3.05E-05,-3.05E-05,-3.05E-05,D,1,2026-08-22_23-06-48,22/08/2026
0.965454545,1,1,1,0.805369128,1,0,0,1,1,1,-3.05E-05,-3.05E-05,-3.05E-05,-3.05E-05,-3.05E-05,-3.05E-05,D,1,2026-08-22_23-06-48,22/08/2026
0.967272727,1,1,1,0.805369128,1,0,0,1,1,1,-3.05E-05,-3.05E-05,-3.05E-05,-3.05E-05,-3.05E-05,-3.05E-05,D,1,2026-08-22_23-06-48,22/08/2026
1,0.93707483,1,1,0.805369128,1,0,0,1,1,1,-3.05E-05,-3.05E-05,-3.05E-05,-3.05E-05,-3.05E-05,-3.05E-05,D,1,2026-08-22_23-06-48,22/08/2026
1,0.988095238,1,1,0.872483221,1,0,0,1,1,1,-3.05E-05,-3.05E-05,-3.05E-05,-3.05E-05,-3.05E-05,-3.05E-05,D,1,2026-08-22_23-06-48,22/08/2026
0.947272727,1,1,1,0.805369128,1,0,0,1,1,1,-3.05E-05,-3.05E-05,-3.05E-05,-3.05E-05,-3.05E-05,-3.05E-05,D,1,2026-08-22_23-06-48,22/08/2026
0.96,0.988095238,1,1,0.805369128,1,0,0,1,1,1,-3.05E-05,-3.05E-05,-3.05E-05,-3.05E-05,-3.05E-05,-3.05E-05,D,1,2026-08-22_23-06-48,22/08/2026
0.952727273,0.962585034,1,1,0.161073826,1,0,0,1,1,1,-3.05E-05,-3.05E-05,-3.05E-05,-3.05E-05,-3.05E-05,-3.05E-05,D,1,2026-08-22_23-06-48,22/08/2026
1,1,1,1,0.805369128,1,0,0,1,1,1,-3.05E-05,-3.05E-05,-3.05E-05,-3.05E-05,-3.05E-05,-3.05E-05,D,1,2026-08-22_23-06-48,22/08/2026
0.923636364,1,1,1,0.805369128,1,0,0,1,1,1,-3.05E-05,-3.05E-05,-3.05E-05,-3.05E-05,-3.05E-05,-3.05E-05,D,1,2026-08-22_23-06-48,22/08/2026
1,0.989795918,1,1,0.805369128,1,0,0,1,1,1,-3.05E-05,-3.05E-05,-3.05E-05,-3.05E-05,-3.05E-05,-3.05E-05,D,1,2026-08-22_23-06-48,22/08/2026
1,1,1,1,0.805369128,1,0,0,1,1,1,-3.05E-05,-3.05E-05,-3.05E-05,-3.05E-05,-3.05E-05,-3.05E-05,D,1,2026-08-22_23-06-48,22/08/2026
1,1,1,1,0.429530201,1,0,0,1,1,1,-3.05E-05,-3.05E-05,-3.05E-05,-3.05E-05,-3.05E-05,-3.05E-05,D,1,2026-08-22_23-06-48,22/08/2026
0.927272727,0.945578231,1,1,0.375838926,1,0,0,1,1,1,-3.05E-05,-3.05E-05,-3.05E-05,-3.05E-05,-3.05E-05,-3.05E-05,D,1,2026-08-22_23-06-48,22/08/2026
0.869090909,1,1,1,0.805369128,1,0,0,1,1,1,-3.05E-05,-3.05E-05,-3.05E-05,-3.05E-05,-3.05E-05,-3.05E-05,D,1,2026-08-22_23-06-48,22/08/2026
0.992727273,0.977891156,1,1,0.805369128,1,0,0,1,1,1,-3.05E-05,-3.05E-05,-3.05E-05,-3.05E-05,-3.05E-05,-3.05E-05,D,2,2026-08-22_23-06-48,22/08/2026
0.98,1,0.945255474,1,0.88590604,1,0,0,1,1,1,-3.05E-05,-3.05E-05,-3.05E-05,-3.05E-05,-3.05E-05,-3.05E-05,D,2,2026-08-22_23-06-48,22/08/2026
0.974545455,1,0.959854015,1,0.805369128,1,0,0,1,1,1,-3.05E-05,-3.05E-05,-3.05E-05,-3.05E-05,-3.05E-05,-3.05E-05,D,2,2026-08-22_23-06-48,22/08/2026
1,1,0.868613139,1,0.805369128,1,0,0,1,1,1,-3.05E-05,-3.05E-05,-3.05E-05,-3.05E-05,-3.05E-05,-3.05E-05,D,2,2026-08-22_23-06-48,22/08/2026
0.958181818,1,1,1,0.912751678,1,0,0,1,1,1,-3.05E-05,-3.05E-05,-3.05E-05,-3.05E-05,-3.05E-05,-3.05E-05,D,2,2026-08-22_23-06-48,22/08/2026
1,0.979591837,0.99270073,1,0.348993289,1,0,0,1,1,1,-3.05E-05,-3.05E-05,-3.05E-05,-3.05E-05,-3.05E-05,-3.05E-05,D,2,2026-08-22_23-06-48,22/08/2026
1,1,0.875912409,1,0.805369128,1,0,0,1,1,1,-3.05E-05,-3.05E-05,-3.05E-05,-3.05E-05,-3.05E-05,-3.05E-05,D,2,2026-08-22_23-06-48,22/08/2026
1,1,0.908759124,1,0.496644295,1,0,0,1,1,1,-3.05E-05,-3.05E-05,-3.05E-05,-3.05E-05,-3.05E-05,-3.05E-05,D,2,2026-08-22_23-06-48,22/08/2026
1,1,0.952554745,1,0.805369128,1,0,0,1,1,1,-3.05E-05,-3.05E-05,-3.05E-05,-3.05E-05,-3.05E-05,-3.05E-05,D,2,2026-08-22_23-06-48,22/08/2026
0.990909091,1,0.806569343,1,0.456375839,1,0,0,1,1,1,-3.05E-05,-3.05E-05,-3.05E-05,-3.05E-05,-3.05E-05,-3.05E-05,D,2,2026-08-22_23-06-48,22/08/2026
0.998181818,1,0.806569343,1,0.805369128,1,0,0,1,1,1,-3.05E-05,-3.05E-05,-3.05E-05,-3.05E-05,-3.05E-05,-3.05E-05,D,2,2026-08-22_23-06-48,22/08/2026
1,0.989795918,0.875912409,1,0.805369128,1,0,0,1,1,1,-3.05E-05,-3.05E-05,-3.05E-05,-3.05E-05,-3.05E-05,-3.05E-05,D,2,2026-08-22_23-06-48,22/08/2026
0.981818182,1,0.883211679,1,0.348993289,1,0,0,1,1,1,-3.05E-05,-3.05E-05,-3.05E-05,-3.05E-05,-3.05E-05,-3.05E-05,D,2,2026-08-22_23-06-48,22/08/2026
1,1,0.97080292,1,0.805369128,1,0,0,1,1,1,-3.05E-05,-3.05E-05,-3.05E-05,-3.05E-05,-3.05E-05,-3.05E-05,D,2,2026-08-22_23-06-48,22/08/2026
1,1,0.95620438,1,0.805369128,1,0,0,1,1,1,-3.05E-05,-3.05E-05,-3.05E-05,-3.05E-05,-3.05E-05,-3.05E-05,D,2,2026-08-22_23-06-48,22/08/2026
0.992727273,1,0.934306569,1,0.805369128,1,0,0,1,1,1,-3.05E-05,-3.05E-05,-3.05E-05,-3.05E-05,-3.05E-05,-3.05E-05,D,2,2026-08-22_23-06-48,22/08/2026
0.985454545,1,0.916058394,1,0.805369128,1,0,0,1,1,1,-3.05E-05,-3.05E-05,-3.05E-05,-3.05E-05,-3.05E-05,-3.05E-05,D,2,2026-08-22_23-06-48,22/08/2026
1,1,0.879562044,1,0.805369128,1,0,0,1,1,1,-3.05E-05,-3.05E-05,-3.05E-05,-3.05E-05,-3.05E-05,-3.05E-05,D,2,2026-08-22_23-06-48,22/08/2026
1,1,0.952554745,1,0.805369128,1,0,0,1,1,1,-3.05E-05,-3.05E-05,-3.05E-05,-3.05E-05,-3.05E-05,-3.05E-05,D,2,2026-08-22_23-06-48,22/08/2026
0.956363636,1,0.912408759,1,0.805369128,1,0,0,1,1,1,-3.05E-05,-3.05E-05,-3.05E-05,-3.05E-05,-3.05E-05,-3.05E-05,D,2,2026-08-22_23-06-48,22/08/2026
1,1,0.850364964,1,0.805369128,1,0,0,1,1,1,-3.05E-05,-3.05E-05,-3.05E-05,-3.05E-05,-3.05E-05,-3.05E-05,D,2,2026-08-22_23-06-48,22/08/2026
1,1,0.810218978,1,0.348993289,1,0,0,1,1,1,-3.05E-05,-3.05E-05,-3.05E-05,-3.05E-05,-3.05E-05,-3.05E-05,D,2,2026-08-22_23-06-48,22/08/2026
1,1,0.817518248,1,0.483221477,1,0,0,1,1,1,-3.05E-05,-3.05E-05,-3.05E-05,-3.05E-05,-3.05E-05,-3.05E-05,D,2,2026-08-22_23-06-48,22/08/2026
1,1,0.934306569,1,0.805369128,1,0,0,1,1,1,-3.05E-05,-3.05E-05,-3.05E-05,-3.05E-05,-3.05E-05,-3.05E-05,D,2,2026-08-22_23-06-48,22/08/2026
1,1,0.857664234,1,0.805369128,1,0,0,1,1,1,-3.05E-05,-3.05E-05,-3.05E-05,-3.05E-05,-3.05E-05,-3.05E-05,D,2,2026-08-22_23-06-48,22/08/2026
1,1,0.879562044,1,0.805369128,1,0,0,1,1,1,-3.05E-05,-3.05E-05,-3.05E-05,-3.05E-05,-3.05E-05,-3.05E-05,D,2,2026-08-22_23-06-48,22/08/2026
1,1,0.916058394,1,0.832214765,1,0,0,1,1,1,-3.05E-05,-3.05E-05,-3.05E-05,-3.05E-05,-3.05E-05,-3.05E-05,D,2,2026-08-22_23-06-48,22/08/2026
1,1,0.908759124,1,0.805369128,1,0,0,1,1,1,-3.05E-05,-3.05E-05,-3.05E-05,-3.05E-05,-3.05E-05,-3.05E-05,D,2,2026-08-22_23-06-48,22/08/2026
1,1,0.989051095,1,0.805369128,1,0,0,1,1,1,-3.05E-05,-3.05E-05,-3.05E-05,-3.05E-05,-3.05E-05,-3.05E-05,D,2,2026-08-22_23-06-48,22/08/2026
0.945454545,0.979591837,0.828467153,1,0.805369128,1,0,0,1,1,1,-3.05E-05,-3.05E-05,-3.05E-05,-3.05E-05,-3.05E-05,-3.05E-05,D,2,2026-08-22_23-06-48,22/08/2026
0.961818182,1,0.99270073,1,0.805369128,1,0,0,1,1,1,-3.05E-05,-3.05E-05,-3.05E-05,-3.05E-05,-3.05E-05,-3.05E-05,D,2,2026-08-22_23-06-48,22/08/2026
0.998181818,1,0.897810219,1,0.44295302,1,0,0,1,1,1,-3.05E-05,-3.05E-05,-3.05E-05,-3.05E-05,-3.05E-05,-3.05E-05,D,2,2026-08-22_23-06-48,22/08/2026
0.998181818,1,1,1,1,1,0,0,1,1,1,-3.05E-05,-3.05E-05,-3.05E-05,-3.05E-05,-3.05E-05,-3.05E-05,D,2,2026-08-22_23-06-48,22/08/2026
0.965454545,1,0.937956204,1,0.510067114,1,0,0,1,1,1,-3.05E-05,-3.05E-05,-3.05E-05,-3.05E-05,-3.05E-05,-3.05E-05,D,2,2026-08-22_23-06-48,22/08/2026
1,1,0.886861314,1,0.805369128,1,0,0,1,1,1,-3.05E-05,-3.05E-05,-3.05E-05,-3.05E-05,-3.05E-05,-3.05E-05,D,2,2026-08-22_23-06-48,22/08/2026
1,0.994897959,0.99270073,1,0.805369128,1,0,0,1,1,1,-3.05E-05,-3.05E-05,-3.05E-05,-3.05E-05,-3.05E-05,-3.05E-05,D,2,2026-08-22_23-06-48,22/08/2026
1,0.994897959,0.810218978,1,0.805369128,1,0,0,1,1,1,-3.05E-05,-3.05E-05,-3.05E-05,-3.05E-05,-3.05E-05,-3.05E-05,D,2,2026-08-22_23-06-48,22/08/2026
1,1,0.883211679,1,0.805369128,1,0,0,1,1,1,-3.05E-05,-3.05E-05,-3.05E-05,-3.05E-05,-3.05E-05,-3.05E-05,D,2,2026-08-22_23-06-48,22/08/2026
1,0.962585034,1,1,0.805369128,1,0,0,1,1,1,-3.05E-05,-3.05E-05,-3.05E-05,-3.05E-05,-3.05E-05,-3.05E-05,D,2,2026-08-22_23-06-48,22/08/2026
0.936363636,1,0.857664234,1,0.44295302,1,0,0,1,1,1,-3.05E-05,-3.05E-05,-3.05E-05,-3.05E-05,-3.05E-05,-3.05E-05,D,2,2026-08-22_23-06-48,22/08/2026
0.970909091,1,0.817518248,1,0.510067114,1,0,0,1,1,1,-3.05E-05,-3.05E-05,-3.05E-05,-3.05E-05,-3.05E-05,-3.05E-05,D,3,2026-08-22_23-06-48,22/08/2026
1,1,0.897810219,1,0.416107383,1,0,0,1,1,1,-3.05E-05,-3.05E-05,-3.05E-05,-3.05E-05,-3.05E-05,-3.05E-05,D,3,2026-08-22_23-06-48,22/08/2026
1,1,1,1,0.845637584,1,0,0,1,1,1,-3.05E-05,-3.05E-05,-3.05E-05,-3.05E-05,-3.05E-05,-3.05E-05,D,3,2026-08-22_23-06-48,22/08/2026
1,1,0.897810219,1,0.805369128,1,0,0,1,1,1,-3.05E-05,-3.05E-05,-3.05E-05,-3.05E-05,-3.05E-05,-3.05E-05,D,3,2026-08-22_23-06-48,22/08/2026
0.918181818,0.957482993,0.99270073,1,1,1,0,0,1,1,1,-3.05E-05,-3.05E-05,-3.05E-05,-3.05E-05,-3.05E-05,-3.05E-05,D,3,2026-08-22_23-06-48,22/08/2026
1,1,1,1,0.147651007,1,0,0,1,1,1,-3.05E-05,-3.05E-05,-3.05E-05,-3.05E-05,-3.05E-05,-3.05E-05,D,3,2026-08-22_23-06-48,22/08/2026
0.950909091,1,0.678832117,1,0.161073826,1,0,0,1,1,1,-3.05E-05,-3.05E-05,-3.05E-05,-3.05E-05,-3.05E-05,-3.05E-05,D,3,2026-08-22_23-06-48,22/08/2026
0.950909091,1,0.788321168,1,0.805369128,1,0,0,1,1,1,-3.05E-05,-3.05E-05,-3.05E-05,-3.05E-05,-3.05E-05,-3.05E-05,D,3,2026-08-22_23-06-48,22/08/2026
0.681818182,1,1,1,0.228187919,1,0,0,1,1,1,-3.05E-05,-3.05E-05,-3.05E-05,-3.05E-05,-3.05E-05,-3.05E-05,D,3,2026-08-22_23-06-48,22/08/2026
1,1,0.930656934,1,0.805369128,1,0,0,1,1,1,-3.05E-05,-3.05E-05,-3.05E-05,-3.05E-05,-3.05E-05,-3.05E-05,D,3,2026-08-22_23-06-48,22/08/2026
1,1,0.777372263,1,0.120805369,1,0,0,1,1,1,-3.05E-05,-3.05E-05,-3.05E-05,-3.05E-05,-3.05E-05,-3.05E-05,D,3,2026-08-22_23-06-48,22/08/2026
0.785454545,1,0.989051095,1,0.805369128,1,0,0,1,1,1,-3.05E-05,-3.05E-05,-3.05E-05,-3.05E-05,-3.05E-05,-3.05E-05,D,3,2026-08-22_23-06-48,22/08/2026
1,1,0.817518248,1,0.228187919,1,0,0,1,1,1,-3.05E-05,-3.05E-05,-3.05E-05,-3.05E-05,-3.05E-05,-3.05E-05,D,3,2026-08-22_23-06-48,22/08/2026
0.881818182,0.865646259,0.525547445,1,1,1,0,0,1,1,1,-3.05E-05,-3.05E-05,-3.05E-05,-3.05E-05,-3.05E-05,-3.05E-05,D,3,2026-08-22_23-06-48,22/08/2026
0.949090909,1,1,1,0.093959732,1,0,0,1,1,1,-3.05E-05,-3.05E-05,-3.05E-05,-3.05E-05,-3.05E-05,-3.05E-05,D,3,2026-08-22_23-06-48,22/08/2026
0.898181818,1,1,1,0.134228188,1,0,0,1,1,1,-3.05E-05,-3.05E-05,-3.05E-05,-3.05E-05,-3.05E-05,-3.05E-05,D,3,2026-08-22_23-06-48,22/08/2026
1,0.962585034,0.894160584,1,0.805369128,1,0,0,1,1,1,-3.05E-05,-3.05E-05,-3.05E-05,-3.05E-05,-3.05E-05,-3.05E-05,D,3,2026-08-22_23-06-48,22/08/2026
0.985454545,0.991496599,0.850364964,1,0.805369128,1,0,0,1,1,1,-3.05E-05,-3.05E-05,-3.05E-05,-3.05E-05,-3.05E-05,-3.05E-05,D,3,2026-08-22_23-06-48,22/08/2026
1,0.945578231,0.718978102,1,0.161073826,1,0,0,1,1,1,-3.05E-05,-3.05E-05,-3.05E-05,-3.05E-05,-3.05E-05,-3.05E-05,D,3,2026-08-22_23-06-48,22/08/2026
0.983636364,1,0.883211679,1,0.805369128,1,0,0,1,1,1,-3.05E-05,-3.05E-05,-3.05E-05,-3.05E-05,-3.05E-05,-3.05E-05,D,3,2026-08-22_23-06-48,22/08/2026
0.972727273,1,0.99270073,1,1,1,0,0,1,1,1,-3.05E-05,-3.05E-05,-3.05E-05,-3.05E-05,-3.05E-05,-3.05E-05,D,3,2026-08-22_23-06-48,22/08/2026
0.910909091,0.971088435,0.726277372,1,0.147651007,1,0,0,1,1,1,-3.05E-05,-3.05E-05,-3.05E-05,-3.05E-05,-3.05E-05,-3.05E-05,D,3,2026-08-22_23-06-48,22/08/2026
1,0.988095238,0.967153285,1,0.805369128,1,0,0,1,1,1,-3.05E-05,-3.05E-05,-3.05E-05,-3.05E-05,-3.05E-05,-3.05E-05,D,3,2026-08-22_23-06-48,22/08/2026
1,1,0.711678832,1,0.44295302,1,0,0,1,1,1,-3.05E-05,-3.05E-05,-3.05E-05,-3.05E-05,-3.05E-05,-3.05E-05,D,3,2026-08-22_23-06-48,22/08/2026
1,1,0.788321168,1,0.389261745,1,0,0,1,1,1,-3.05E-05,-3.05E-05,-3.05E-05,-3.05E-05,-3.05E-05,-3.05E-05,D,3,2026-08-22_23-06-48,22/08/2026
1,0.984693878,0.835766423,1,0.429530201,1,0,0,1,1,1,-3.05E-05,-3.05E-05,-3.05E-05,-3.05E-05,-3.05E-05,-3.05E-05,D,3,2026-08-22_23-06-48,22/08/2026
1,0.986394558,0.872262774,1,0.805369128,1,0,0,1,1,1,-3.05E-05,-3.05E-05,-3.05E-05,-3.05E-05,-3.05E-05,-3.05E-05,D,3,2026-08-22_23-06-48,22/08/2026
0.929090909,1,0.875912409,1,0.912751678,1,0,0,1,1,1,-3.05E-05,-3.05E-05,-3.05E-05,-3.05E-05,-3.05E-05,-3.05E-05,D,3,2026-08-22_23-06-48,22/08/2026
0.883636364,1,0.923357664,1,0.375838926,1,0,0,1,1,1,-3.05E-05,-3.05E-05,-3.05E-05,-3.05E-05,-3.05E-05,-3.05E-05,D,3,2026-08-22_23-06-48,22/08/2026
1,1,1,1,0.523489933,1,0,0,1,1,1,-3.05E-05,-3.05E-05,-3.05E-05,-3.05E-05,-3.05E-05,-3.05E-05,D,3,2026-08-22_23-06-48,22/08/2026
0.981818182,0.960884354,0.97080292,1,0.805369128,1,0,0,1,1,1,-3.05E-05,-3.05E-05,-3.05E-05,-3.05E-05,-3.05E-05,-3.05E-05,D,3,2026-08-22_23-06-48,22/08/2026
0.9,1,1,1,0.912751678,1,0,0,1,1,1,-3.05E-05,-3.05E-05,-3.05E-05,-3.05E-05,-3.05E-05,-3.05E-05,D,3,2026-08-22_23-06-48,22/08/2026
0.992727273,1,0.781021898,1,0.805369128,1,0,0,1,1,1,-3.05E-05,-3.05E-05,-3.05E-05,-3.05E-05,-3.05E-05,-3.05E-05,D,3,2026-08-22_23-06-48,22/08/2026
0.961818182,0.981292517,0.890510949,1,0.805369128,1,0,0,1,1,1,-3.05E-05,-3.05E-05,-3.05E-05,-3.05E-05,-3.05E-05,-3.05E-05,D,3,2026-08-22_23-06-48,22/08/2026
1,0.977891156,0.821167883,1,0.268456376,1,0,0,1,1,1,-3.05E-05,-3.05E-05,-3.05E-05,-3.05E-05,-3.05E-05,-3.05E-05,D,3,2026-08-22_23-06-48,22/08/2026
0.883636364,1,0.96350365,1,0.805369128,1,0,0,1,1,1,-3.05E-05,-3.05E-05,-3.05E-05,-3.05E-05,-3.05E-05,-3.05E-05,D,3,2026-08-22_23-06-48,22/08/2026
0.958181818,1,0.795620438,1,0.805369128,1,0,0,1,1,1,-3.05E-05,-3.05E-05,-3.05E-05,-3.05E-05,-3.05E-05,-3.05E-05,D,3,2026-08-22_23-06-48,22/08/2026
