flex_pinky,flex_ring,flex_middle,flex_index,flex_thumb,touch_index,touch_middle,touch_ring,touch_pinky,touch_r,touch_u,ax,ay,az,gx,gy,gz,label,rep,session,day
0.08363636363636363,0.01870748299319728,0.058394160583941604,0.06912442396313365,0.8053691275167785,1.0,1.0,1.0,1.0,1.0,1.0,0.5511474609375,0.01171875,-0.0838623046875,-0.016265869140625,-0.002777099609375,0.003326416015625,B,0,2026-08-22_23-06-48,2026-08-22
0.0,0.013605442176870748,0.058394160583941604,0.2672811059907834,0.48322147651006714,1.0,1.0,1.0,1.0,1.0,1.0,0.5506591796875,0.014892578125,-0.0867919921875,-0.015167236328125,-0.00653076171875,0.004180908203125,B,0,2026-08-22_23-06-48,2026-08-22
0.0,0.0,0.0,0.17972350230414746,0.33557046979865773,1.0,1.0,1.0,1.0,1.0,1.0,0.5538330078125,0.020263671875,-0.0850830078125,-0.0079345703125,-0.01043701171875,0.00555419921875,B,0,2026-08-22_23-06-48,2026-08-22
0.2109090909090909,0.15136054421768708,0.40875912408759124,0.43317972350230416,0.8053691275167785,1.0,1.0,1.0,1.0,1.0,1.0,0.553955078125,0.0179443359375,-0.085693359375,-0.003326416015625,-0.010894775390625,0.005401611328125,B,0,2026-08-22_23-06-48,2026-08-22
0.35818181818181816,0.011904761904761904,0.0,0.2119815668202765,0.4429530201342282,1.0,1.0,1.0,1.0,1.0,1.0,0.5528564453125,0.02001953125,-0.08935546875,-0.00384521484375,-0.009552001953125,0.005340576171875,B,0,2026-08-22_23-06-48,2026-08-22
0.0,0.061224489795918366,0.45985401459854014,0.7557603686635944,0.3221476510067114,1.0,1.0,1.0,1.0,1.0,1.0,0.555419921875,0.019287109375,-0.0887451171875,-0.00775146484375,-0.01202392578125,0.00677490234375,B,0,2026-08-22_23-06-48,2026-08-22
0.0,0.0,0.2956204379562044,0.7972350230414746,0.0,1.0,1.0,1.0,1.0,1.0,1.0,0.5528564453125,0.0128173828125,-0.0931396484375,-0.012451171875,-0.012176513671875,0.007354736328125,B,0,2026-08-22_23-06-48,2026-08-22
0.0,0.025510204081632654,0.4197080291970803,0.8110599078341014,0.0,1.0,1.0,1.0,1.0,1.0,1.0,0.547607421875,0.0135498046875,-0.0899658203125,-0.0172119140625,-0.01153564453125,0.005401611328125,B,0,2026-08-22_23-06-48,2026-08-22
0.0,0.07142857142857142,0.5875912408759124,0.6774193548387096,0.0,1.0,1.0,1.0,1.0,1.0,1.0,0.552490234375,0.0123291015625,-0.0938720703125,-0.013031005859375,-0.008941650390625,0.0040283203125,B,0,2026-08-22_23-06-48,2026-08-22
0.007272727272727273,0.13095238095238096,0.5,0.6497695852534562,0.1476510067114094,1.0,1.0,1.0,1.0,1.0,1.0,0.5528564453125,0.01611328125,-0.090087890625,-0.0064697265625,-0.007781982421875,0.00384521484375,B,0,2026-08-22_23-06-48,2026-08-22
0.0,0.0,0.0,0.6036866359447005,0.0,1.0,1.0,1.0,1.0,1.0,1.0,0.5552978515625,0.0103759765625,-0.09130859375,-0.003814697265625,-0.006195068359375,0.00299072265625,B,0,2026-08-22_23-06-48,2026-08-22
0.06909090909090909,0.07993197278911565,0.35036496350364965,0.16129032258064516,1.0,1.0,1.0,1.0,1.0,1.0,1.0,0.555908203125,0.0096435546875,-0.0926513671875,-0.011138916015625,-0.007598876953125,0.000946044921875,B,0,2026-08-22_23-06-48,2026-08-22
0.13090909090909092,0.04081632653061224,0.0,0.0,1.0,1.0,1.0,1.0,1.0,1.0,1.0,0.5506591796875,0.0155029296875,-0.0921630859375,-0.011871337890625,-0.009490966796875,0.002716064453125,B,0,2026-08-22_23-06-48,2026-08-22
0.012727272727272728,0.0,0.0,0.07373271889400922,1.0,1.0,1.0,1.0,1.0,1.0,1.0,0.550048828125,0.0145263671875,-0.0859375,-0.015045166015625,-0.00909423828125,0.0035400390625,B,0,2026-08-22_23-06-48,2026-08-22
0.025454545454545455,0.0,0.0,0.14746543778801843,1.0,1.0,1.0,1.0,1.0,1.0,1.0,0.5506591796875,0.016845703125,-0.0916748046875,-0.015899658203125,-0.01025390625,0.0032958984375,B,0,2026-08-22_23-06-48,2026-08-22
0.18363636363636363,0.0,0.0,0.0,1.0,1.0,1.0,1.0,1.0,1.0,1.0,0.5477294921875,0.0189208984375,-0.0906982421875,-0.0089111328125,-0.00762939453125,0.004180908203125,B,0,2026-08-22_23-06-48,2026-08-22
0.11818181818181818,0.02891156462585034,0.0,0.0,0.8053691275167785,1.0,1.0,1.0,1.0,1.0,1.0,0.5523681640625,0.0174560546875,-0.0887451171875,-0.00787353515625,-0.00762939453125,0.004241943359375,B,0,2026-08-22_23-06-48,2026-08-22
0.0,0.0,0.0,0.22580645161290322,1.0,1.0,1.0,1.0,1.0,1.0,1.0,0.549560546875,0.01953125,-0.0902099609375,-0.012603759765625,-0.00775146484375,0.0037841796875,B,0,2026-08-22_23-06-48,2026-08-22
0.0,0.015306122448979591,0.0,0.4470046082949309,0.0,1.0,1.0,1.0,1.0,1.0,1.0,0.5496826171875,0.0142822265625,-0.0887451171875,-0.011322021484375,-0.00701904296875,0.005096435546875,B,0,2026-08-22_23-06-48,2026-08-22
0.04909090909090909,0.0,0.0,0.11981566820276497,0.8053691275167785,1.0,1.0,1.0,1.0,1.0,1.0,0.5546875,0.013427734375,-0.09228515625,-0.01080322265625,-0.005767822265625,0.00531005859375,B,0,2026-08-22_23-06-48,2026-08-22
0.0,0.0,0.0,0.28110599078341014,0.8053691275167785,1.0,1.0,1.0,1.0,1.0,1.0,0.5535888671875,0.0111083984375,-0.088134765625,-0.0135498046875,-0.008270263671875,0.00469970703125,B,0,2026-08-22_23-06-48,2026-08-22
0.0,0.022108843537414966,0.20072992700729927,0.3317972350230415,0.0,1.0,1.0,1.0,1.0,1.0,1.0,0.552734375,0.0172119140625,-0.087890625,-0.00946044921875,-0.007293701171875,0.003875732421875,B,0,2026-08-22_23-06-48,2026-08-22
0.03272727272727273,0.03571428571428571,0.06204379562043796,0.2534562211981567,0.4563758389261745,1.0,1.0,1.0,1.0,1.0,1.0,0.5556640625,0.0098876953125,-0.0938720703125,-0.006988525390625,-0.006500244140625,0.003204345703125,B,0,2026-08-22_23-06-48,2026-08-22
0.0,0.0,0.0,0.29493087557603687,0.0,1.0,1.0,1.0,1.0,1.0,1.0,0.5509033203125,0.01416015625,-0.093505859375,-0.014251708984375,-0.007598876953125,0.000396728515625,B,0,2026-08-22_23-06-48,2026-08-22
0.005454545454545455,0.0,0.0036496350364963502,0.2857142857142857,0.3087248322147651,1.0,1.0,1.0,1.0,1.0,1.0,0.5489501953125,0.0174560546875,-0.0870361328125,-0.0123291015625,-0.008514404296875,0.001800537109375,B,0,2026-08-22_23-06-48,2026-08-22
0.014545454545454545,0.011904761904761904,0.11678832116788321,0.3456221198156682,0.4429530201342282,1.0,1.0,1.0,1.0,1.0,1.0,0.54833984375,0.016357421875,-0.093017578125,-0.00885009765625,-0.009368896484375,0.002838134765625,B,0,2026-08-22_23-06-48,2026-08-22
0.04,0.0,0.0072992700729927005,0.17050691244239632,0.28187919463087246,1.0,1.0,1.0,1.0,1.0,1.0,0.5484619140625,0.018310546875,-0.0899658203125,-0.011016845703125,-0.009765625,0.003082275390625,B,0,2026-08-22_23-06-48,2026-08-22
0.025454545454545455,0.0,0.0364963503649635,0.15207373271889402,0.4563758389261745,1.0,1.0,1.0,1.0,1.0,1.0,0.549560546875,0.021484375,-0.0892333984375,-0.0098876953125,-0.00927734375,0.0037841796875,B,0,2026-08-22_23-06-48,2026-08-22
0.00909090909090909,0.0,0.09854014598540146,0.1935483870967742,0.8053691275167785,1.0,1.0,1.0,1.0,1.0,1.0,0.5482177734375,0.016845703125,-0.090576171875,-0.00958251953125,-0.009552001953125,0.00634765625,B,0,2026-08-22_23-06-48,2026-08-22
0.025454545454545455,0.00510204081632653,0.0,0.2350230414746544,0.8053691275167785,1.0,1.0,1.0,1.0,1.0,1.0,0.553466796875,0.0147705078125,-0.0946044921875,-0.00860595703125,-0.00836181640625,0.00714111328125,B,0,2026-08-22_23-06-48,2026-08-22
0.02181818181818182,0.0,0.07664233576642336,0.2073732718894009,0.4429530201342282,1.0,1.0,1.0,1.0,1.0,1.0,0.5516357421875,0.012451171875,-0.0936279296875,-0.008453369140625,-0.006378173828125,0.006317138671875,B,0,2026-08-22_23-06-48,2026-08-22
0.02181818181818182,0.0,0.040145985401459854,0.2350230414746544,0.348993288590604,1.0,1.0,1.0,1.0,1.0,1.0,0.5506591796875,0.0118408203125,-0.090576171875,-0.01318359375,-0.007232666015625,0.005035400390625,B,0,2026-08-22_23-06-48,2026-08-22
0.04181818181818182,0.00510204081632653,0.058394160583941604,0.20276497695852536,0.2953020134228188,1.0,1.0,1.0,1.0,1.0,1.0,0.5545654296875,0.01220703125,-0.0914306640625,-0.011749267578125,-0.007843017578125,0.005126953125,B,0,2026-08-22_23-06-48,2026-08-22
0.0,0.0,0.0,0.29493087557603687,0.5100671140939598,1.0,1.0,1.0,1.0,1.0,1.0,0.555908203125,0.011962890625,-0.0914306640625,-0.01019287109375,-0.00579833984375,0.00341796875,B,0,2026-08-22_23-06-48,2026-08-22
0.05454545454545454,0.030612244897959183,0.0,0.24423963133640553,0.4429530201342282,1.0,1.0,1.0,1.0,1.0,1.0,0.5513916015625,0.0115966796875,-0.087646484375,-0.0087890625,-0.004547119140625,0.002716064453125,B,0,2026-08-22_23-06-48,2026-08-22
0.0,0.0,0.0036496350364963502,0.29493087557603687,0.33557046979865773,1.0,1.0,1.0,1.0,1.0,1.0,0.5545654296875,0.015869140625,-0.0880126953125,-0.00762939453125,-0.005035400390625,0.001312255859375,B,0,2026-08-22_23-06-48,2026-08-22
0.025454545454545455,0.0,0.0,0.11981566820276497,0.8053691275167785,1.0,1.0,1.0,1.0,1.0,1.0,0.5533447265625,0.0145263671875,-0.085205078125,-0.008544921875,-0.005828857421875,0.002655029296875,B,0,2026-08-22_23-06-48,2026-08-22
0.038181818181818185,0.034013605442176874,0.032846715328467155,0.30414746543778803,0.48322147651006714,1.0,1.0,1.0,1.0,1.0,1.0,0.5546875,0.0113525390625,-0.09130859375,-0.010528564453125,-0.006317138671875,0.002288818359375,B,0,2026-08-22_23-06-48,2026-08-22
0.06181818181818182,0.0,0.0,0.29493087557603687,0.09395973154362416,1.0,1.0,1.0,1.0,1.0,1.0,0.5540771484375,0.015625,-0.0887451171875,-0.012939453125,-0.008575439453125,0.0028076171875,B,0,2026-08-22_23-06-48,2026-08-22
0.03636363636363636,0.0,0.06934306569343066,0.24423963133640553,0.42953020134228187,1.0,1.0,1.0,1.0,1.0,1.0,0.5504150390625,0.015625,-0.0841064453125,-0.010833740234375,-0.010467529296875,0.00372314453125,B,0,2026-08-22_23-06-48,2026-08-22
0.15818181818181817,0.0935374149659864,0.072992700729927,0.004608294930875576,1.0,1.0,1.0,1.0,1.0,1.0,1.0,0.5423583984375,0.132080078125,-0.0068359375,0.003753662109375,-0.009521484375,0.003082275390625,B,1,2026-08-22_23-06-48,2026-08-22
0.0,0.0,0.5036496350364964,0.2304147465437788,0.0,1.0,1.0,1.0,1.0,1.0,1.0,0.54150390625,0.135009765625,-0.0133056640625,-0.003082275390625,-0.0146484375,0.011566162109375,B,1,2026-08-22_23-06-48,2026-08-22
0.0,0.0,0.45255474452554745,0.29493087557603687,0.06711409395973154,1.0,1.0,1.0,1.0,1.0,1.0,0.544677734375,0.1314697265625,-0.01123046875,-0.016815185546875,-0.012115478515625,0.019927978515625,B,1,2026-08-22_23-06-48,2026-08-22
0.014545454545454545,0.0,0.0,0.0,1.0,1.0,1.0,1.0,1.0,1.0,1.0,0.54638671875,0.1357421875,-0.0074462890625,-0.02227783203125,-0.003936767578125,0.025665283203125,B,1,2026-08-22_23-06-48,2026-08-22
0.0,0.0,0.11678832116788321,0.5668202764976958,0.0,1.0,1.0,1.0,1.0,1.0,1.0,0.549560546875,0.1265869140625,0.0015869140625,-0.01898193359375,0.005706787109375,0.028167724609375,B,1,2026-08-22_23-06-48,2026-08-22
0.0,0.0,0.0,0.0,0.3624161073825503,1.0,1.0,1.0,1.0,1.0,1.0,0.5537109375,0.1129150390625,0.0093994140625,-0.0107421875,0.009735107421875,0.026824951171875,B,1,2026-08-22_23-06-48,2026-08-22
0.02,0.0,0.0,0.0,0.9395973154362416,1.0,1.0,1.0,1.0,1.0,1.0,0.555908203125,0.1070556640625,0.02099609375,-0.00030517578125,0.006561279296875,0.019073486328125,B,1,2026-08-22_23-06-48,2026-08-22
0.06909090909090909,0.0,0.021897810218978103,0.14746543778801843,0.4429530201342282,1.0,1.0,1.0,1.0,1.0,1.0,0.55322265625,0.1063232421875,0.0225830078125,0.008453369140625,-0.002471923828125,0.011962890625,B,1,2026-08-22_23-06-48,2026-08-22
0.0,0.0,0.0,0.35023041474654376,0.48322147651006714,1.0,1.0,1.0,1.0,1.0,1.0,0.55078125,0.1043701171875,0.0174560546875,0.01409912109375,-0.006683349609375,0.00457763671875,B,1,2026-08-22_23-06-48,2026-08-22
0.0,0.0,0.0,0.30414746543778803,0.026845637583892617,1.0,1.0,1.0,1.0,1.0,1.0,0.5543212890625,0.1070556640625,0.0140380859375,0.007354736328125,-0.009429931640625,-0.000396728515625,B,1,2026-08-22_23-06-48,2026-08-22
0.0,0.0,0.040145985401459854,0.3271889400921659,0.0,1.0,1.0,1.0,1.0,1.0,1.0,0.549072265625,0.1094970703125,0.004638671875,-0.00421142578125,-0.01153564453125,-0.001373291015625,B,1,2026-08-22_23-06-48,2026-08-22
0.0,0.0,0.021897810218978103,0.15668202764976957,0.37583892617449666,1.0,1.0,1.0,1.0,1.0,1.0,0.5499267578125,0.1156005859375,0.00732421875,-0.017730712890625,-0.011993408203125,0.001434326171875,B,1,2026-08-22_23-06-48,2026-08-22
0.0,0.0,0.0,0.1336405529953917,0.0,1.0,1.0,1.0,1.0,1.0,1.0,0.550537109375,0.1201171875,-0.0009765625,-0.020355224609375,-0.0084228515625,0.003509521484375,B,1,2026-08-22_23-06-48,2026-08-22
0.0,0.0,0.0,0.06912442396313365,0.8053691275167785,1.0,1.0,1.0,1.0,1.0,1.0,0.55078125,0.120361328125,0.0010986328125,-0.015960693359375,-0.00579833984375,0.004241943359375,B,1,2026-08-22_23-06-48,2026-08-22
0.0,0.0,0.0,0.1382488479262673,0.3221476510067114,1.0,1.0,1.0,1.0,1.0,1.0,0.5477294921875,0.1229248046875,-0.0013427734375,-0.008270263671875,-0.006378173828125,0.003387451171875,B,1,2026-08-22_23-06-48,2026-08-22
0.0,0.0,0.0,0.29493087557603687,0.8053691275167785,1.0,1.0,1.0,1.0,1.0,1.0,0.5462646484375,0.123291015625,-0.001220703125,-0.007568359375,-0.002960205078125,0.000579833984375,B,1,2026-08-22_23-06-48,2026-08-22
0.0,0.0,0.0,0.22580645161290322,0.8053691275167785,1.0,1.0,1.0,1.0,1.0,1.0,0.54833984375,0.1192626953125,-0.0040283203125,-0.0106201171875,-6.103515625e-05,-0.000640869140625,B,1,2026-08-22_23-06-48,2026-08-22
0.0,0.0,0.0,0.14746543778801843,0.33557046979865773,1.0,1.0,1.0,1.0,1.0,1.0,0.54736328125,0.1219482421875,-0.0009765625,-0.020294189453125,0.000579833984375,0.002471923828125,B,1,2026-08-22_23-06-48,2026-08-22
0.0,0.0,0.0,0.1382488479262673,0.40268456375838924,1.0,1.0,1.0,1.0,1.0,1.0,0.5440673828125,0.1239013671875,-0.008056640625,-0.027801513671875,0.0032958984375,0.0068359375,B,1,2026-08-22_23-06-48,2026-08-22
0.0,0.0,0.0,0.14746543778801843,0.40268456375838924,1.0,1.0,1.0,1.0,1.0,1.0,0.542724609375,0.124267578125,-0.007080078125,-0.02691650390625,0.00445556640625,0.012237548828125,B,1,2026-08-22_23-06-48,2026-08-22
0.0,0.0,0.0,0.24423963133640553,0.8053691275167785,1.0,1.0,1.0,1.0,1.0,1.0,0.542724609375,0.123779296875,-0.00390625,-0.023681640625,0.0087890625,0.01385498046875,B,1,2026-08-22_23-06-48,2026-08-22
0.0,0.0,0.0,0.1935483870967742,0.5100671140939598,1.0,1.0,1.0,1.0,1.0,1.0,0.5435791015625,0.1168212890625,-0.0040283203125,-0.02044677734375,0.009429931640625,0.011688232421875,B,1,2026-08-22_23-06-48,2026-08-22
0.0,0.0,0.0,0.1152073732718894,0.8053691275167785,1.0,1.0,1.0,1.0,1.0,1.0,0.5445556640625,0.1121826171875,0.00341796875,-0.022125244140625,0.017059326171875,0.01007080078125,B,1,2026-08-22_23-06-48,2026-08-22
0.0,0.0,0.0,0.11981566820276497,0.5234899328859061,1.0,1.0,1.0,1.0,1.0,1.0,0.5479736328125,0.10498046875,0.010498046875,-0.021484375,0.017181396484375,0.01019287109375,B,1,2026-08-22_23-06-48,2026-08-22
0.0,0.0,0.0,0.17050691244239632,0.8053691275167785,1.0,1.0,1.0,1.0,1.0,1.0,0.5499267578125,0.1055908203125,0.016357421875,-0.02105712890625,0.01300048828125,0.008331298828125,B,1,2026-08-22_23-06-48,2026-08-22
0.0,0.0,0.0,0.29493087557603687,0.5369127516778524,1.0,1.0,1.0,1.0,1.0,1.0,0.5499267578125,0.1025390625,0.0264892578125,-0.017730712890625,0.00921630859375,0.0042724609375,B,1,2026-08-22_23-06-48,2026-08-22
0.0,0.0,0.0,0.29493087557603687,0.18791946308724833,1.0,1.0,1.0,1.0,1.0,1.0,0.547607421875,0.103759765625,0.0234375,-0.012908935546875,0.003875732421875,-0.0009765625,B,1,2026-08-22_23-06-48,2026-08-22
0.0,0.0,0.040145985401459854,0.16589861751152074,0.40268456375838924,1.0,1.0,1.0,1.0,1.0,1.0,0.55078125,0.1080322265625,0.01953125,-0.0069580078125,0.00390625,-0.0064697265625,B,1,2026-08-22_23-06-48,2026-08-22
0.0,0.0,0.0,0.03225806451612903,0.5100671140939598,1.0,1.0,1.0,1.0,1.0,1.0,0.550048828125,0.1068115234375,0.02197265625,-0.006988525390625,0.000946044921875,-0.00848388671875,B,1,2026-08-22_23-06-48,2026-08-22
0.0,0.0,0.0,0.2488479262672811,0.8053691275167785,1.0,1.0,1.0,1.0,1.0,1.0,0.5516357421875,0.112060546875,0.0218505859375,-0.01123046875,-0.003143310546875,-0.0098876953125,B,1,2026-08-22_23-06-48,2026-08-22
0.0,0.0,0.014598540145985401,0.20276497695852536,0.1476510067114094,1.0,1.0,1.0,1.0,1.0,1.0,0.549072265625,0.11962890625,0.0186767578125,-0.014373779296875,-0.002288818359375,-0.007843017578125,B,1,2026-08-22_23-06-48,2026-08-22
0.0,0.0,0.0,0.2350230414746544,0.2684563758389262,1.0,1.0,1.0,1.0,1.0,1.0,0.5458984375,0.1273193359375,0.017578125,-0.011077880859375,0.001007080078125,-0.00567626953125,B,1,2026-08-22_23-06-48,2026-08-22
0.0,0.0,0.0,0.18433179723502305,0.8053691275167785,1.0,1.0,1.0,1.0,1.0,1.0,0.549072265625,0.12451171875,0.0211181640625,-0.004669189453125,0.0037841796875,-0.0029296875,B,1,2026-08-22_23-06-48,2026-08-22
0.0,0.0,0.0,0.23963133640552994,0.42953020134228187,1.0,1.0,1.0,1.0,1.0,1.0,0.54833984375,0.123046875,0.0220947265625,0.001190185546875,0.0013427734375,-0.003387451171875,B,1,2026-08-22_23-06-48,2026-08-22
0.0,0.0,0.0,0.22119815668202766,0.8053691275167785,1.0,1.0,1.0,1.0,1.0,1.0,0.548828125,0.1201171875,0.020751953125,0.002532958984375,-0.00067138671875,-0.00390625,B,1,2026-08-22_23-06-48,2026-08-22
0.0,0.0,0.051094890510948905,0.16129032258064516,0.348993288590604,1.0,1.0,1.0,1.0,1.0,1.0,0.5477294921875,0.1199951171875,0.019287109375,-0.003265380859375,-0.00634765625,-0.003936767578125,B,1,2026-08-22_23-06-48,2026-08-22
0.05090909090909091,0.0,0.0,0.2764976958525346,0.9395973154362416,1.0,1.0,1.0,1.0,1.0,1.0,0.5469970703125,0.1224365234375,0.02197265625,-0.0118408203125,-0.008819580078125,-0.001495361328125,B,1,2026-08-22_23-06-48,2026-08-22
0.0,0.0,0.0,0.17050691244239632,0.42953020134228187,1.0,1.0,1.0,1.0,1.0,1.0,0.5452880859375,0.126220703125,0.0203857421875,-0.01458740234375,-0.0103759765625,0.002471923828125,B,1,2026-08-22_23-06-48,2026-08-22
0.005454545454545455,0.0,0.0,0.10138248847926268,0.5100671140939598,1.0,1.0,1.0,1.0,1.0,1.0,0.5421142578125,0.1278076171875,0.019287109375,-0.0084228515625,-0.008544921875,0.003082275390625,B,1,2026-08-22_23-06-48,2026-08-22
0.04727272727272727,0.0,0.0,0.2626728110599078,0.5100671140939598,1.0,1.0,1.0,1.0,1.0,1.0,0.5438232421875,0.1234130859375,0.0133056640625,-0.0003662109375,-0.0084228515625,0.002197265625,B,1,2026-08-22_23-06-48,2026-08-22
0.05454545454545454,0.0,0.0,0.3087557603686636,0.3221476510067114,1.0,1.0,1.0,1.0,1.0,1.0,0.5479736328125,0.087890625,-0.058349609375,-0.0062255859375,-0.0072021484375,0.006683349609375,B,2,2026-08-22_23-06-48,2026-08-22
0.01090909090909091,1.0,0.16058394160583941,0.2672811059907834,0.0,1.0,1.0,1.0,1.0,1.0,1.0,0.5513916015625,0.0888671875,-0.0611572265625,-0.0106201171875,-0.01177978515625,0.0078125,B,2,2026-08-22_23-06-48,2026-08-22
0.04181818181818182,0.0,0.010948905109489052,0.22580645161290322,0.42953020134228187,1.0,1.0,1.0,1.0,1.0,1.0,0.5455322265625,0.091796875,-0.0579833984375,-0.010498046875,-0.0107421875,0.00787353515625,B,2,2026-08-22_23-06-48,2026-08-22
0.06727272727272728,0.0,0.0,0.3087557603686636,0.5369127516778524,1.0,1.0,1.0,1.0,1.0,1.0,0.55029296875,0.0875244140625,-0.0576171875,-0.0074462890625,-0.004974365234375,0.007904052734375,B,2,2026-08-22_23-06-48,2026-08-22
0.0,0.0,0.0,0.17972350230414746,0.348993288590604,1.0,1.0,1.0,1.0,1.0,1.0,0.5479736328125,0.0855712890625,-0.061767578125,-0.012451171875,-0.008056640625,0.00469970703125,B,2,2026-08-22_23-06-48,2026-08-22
0.0,0.0,0.0,0.271889400921659,0.4429530201342282,1.0,1.0,1.0,1.0,1.0,1.0,0.55126953125,0.08349609375,-0.054443359375,-0.0145263671875,-0.01007080078125,0.003204345703125,B,2,2026-08-22_23-06-48,2026-08-22
0.0,0.0,0.0,0.14746543778801843,0.9664429530201343,1.0,1.0,1.0,1.0,1.0,1.0,0.549072265625,0.083740234375,-0.06201171875,-0.01434326171875,-0.0087890625,0.0032958984375,B,2,2026-08-22_23-06-48,2026-08-22
0.0,0.0,0.0,0.15668202764976957,0.1342281879194631,1.0,1.0,1.0,1.0,1.0,1.0,0.5518798828125,0.0826416015625,-0.0560302734375,-0.01348876953125,-0.0047607421875,0.004547119140625,B,2,2026-08-22_23-06-48,2026-08-22
0.00909090909090909,0.0,0.08759124087591241,0.2857142857142857,0.1476510067114094,1.0,1.0,1.0,1.0,1.0,1.0,0.551513671875,0.08154296875,-0.056396484375,-0.00982666015625,-0.00372314453125,0.001983642578125,B,2,2026-08-22_23-06-48,2026-08-22
0.06909090909090909,0.0,0.040145985401459854,0.3087557603686636,0.8053691275167785,1.0,1.0,1.0,1.0,1.0,1.0,0.55078125,0.0892333984375,-0.052978515625,0.00421142578125,-0.003570556640625,-0.0015869140625,B,2,2026-08-22_23-06-48,2026-08-22
0.0,0.0,0.0,0.15207373271889402,0.4161073825503356,1.0,1.0,1.0,1.0,1.0,1.0,0.5482177734375,0.082763671875,-0.0546875,0.010284423828125,-0.007293701171875,-0.004638671875,B,2,2026-08-22_23-06-48,2026-08-22
0.0,1.0,0.0,0.29493087557603687,0.1610738255033557,1.0,1.0,1.0,1.0,1.0,1.0,0.5494384765625,0.083984375,-0.0496826171875,-0.002197265625,-0.00958251953125,-0.006011962890625,B,2,2026-08-22_23-06-48,2026-08-22
0.0,0.0,0.0,0.511520737327189,0.9798657718120806,1.0,1.0,1.0,1.0,1.0,1.0,0.5450439453125,0.0924072265625,-0.055419921875,-0.004913330078125,-0.0045166015625,-0.00390625,B,2,2026-08-22_23-06-48,2026-08-22
0.01090909090909091,0.0,0.0,0.14746543778801843,0.3624161073825503,1.0,1.0,1.0,1.0,1.0,1.0,0.5477294921875,0.084716796875,-0.0533447265625,-0.0054931640625,-0.003997802734375,-0.00128173828125,B,2,2026-08-22_23-06-48,2026-08-22
0.06727272727272728,0.0,0.0,0.12442396313364056,0.8053691275167785,1.0,1.0,1.0,1.0,1.0,1.0,0.55078125,0.09033203125,-0.0677490234375,-0.008514404296875,-0.00732421875,0.00048828125,B,2,2026-08-22_23-06-48,2026-08-22
0.04727272727272727,0.0,0.0,0.28110599078341014,0.9261744966442953,1.0,1.0,1.0,1.0,1.0,1.0,0.548828125,0.0938720703125,-0.057373046875,-0.013397216796875,-0.0081787109375,0.00238037109375,B,2,2026-08-22_23-06-48,2026-08-22
0.0036363636363636364,0.4370748299319728,0.0,0.29493087557603687,0.42953020134228187,1.0,1.0,1.0,1.0,1.0,1.0,0.548095703125,0.0955810546875,-0.06201171875,-0.011688232421875,-0.006927490234375,0.0048828125,B,2,2026-08-22_23-06-48,2026-08-22
0.0,0.8622448979591837,0.0,0.33640552995391704,0.174496644295302,1.0,1.0,1.0,1.0,1.0,1.0,0.5498046875,0.0972900390625,-0.0595703125,-0.008758544921875,-0.005157470703125,0.006988525390625,B,2,2026-08-22_23-06-48,2026-08-22
0.06909090909090909,0.9472789115646258,0.0,0.271889400921659,0.8053691275167785,1.0,1.0,1.0,1.0,1.0,1.0,0.5528564453125,0.0904541015625,-0.060791015625,-0.0078125,-0.005523681640625,0.009429931640625,B,2,2026-08-22_23-06-48,2026-08-22
0.01818181818181818,0.9047619047619048,0.058394160583941604,0.4009216589861751,0.8053691275167785,1.0,1.0,1.0,1.0,1.0,1.0,0.5531005859375,0.089599609375,-0.0601806640625,-0.01141357421875,-0.008819580078125,0.009521484375,B,2,2026-08-22_23-06-48,2026-08-22
0.0,0.0,0.0,0.423963133640553,0.8053691275167785,1.0,1.0,1.0,1.0,1.0,1.0,0.5496826171875,0.0838623046875,-0.0609130859375,-0.00823974609375,-0.007904052734375,0.007232666015625,B,2,2026-08-22_23-06-48,2026-08-22
0.0,0.0,0.0,0.34101382488479265,0.48322147651006714,1.0,1.0,1.0,1.0,1.0,1.0,0.5482177734375,0.0789794921875,-0.0574951171875,-0.01025390625,-0.00567626953125,0.0052490234375,B,2,2026-08-22_23-06-48,2026-08-22
0.025454545454545455,0.0,0.07664233576642336,0.4423963133640553,0.348993288590604,1.0,1.0,1.0,1.0,1.0,1.0,0.5496826171875,0.083251953125,-0.0567626953125,-0.013885498046875,-0.00732421875,0.003173828125,B,2,2026-08-22_23-06-48,2026-08-22
0.0,0.0,0.0,0.3640552995391705,0.8053691275167785,1.0,1.0,1.0,1.0,1.0,1.0,0.544921875,0.084716796875,-0.0540771484375,-0.010894775390625,-0.007659912109375,0.0040283203125,B,2,2026-08-22_23-06-48,2026-08-22
0.05454545454545454,0.0,0.0,0.2857142857142857,0.40268456375838924,1.0,1.0,1.0,1.0,1.0,1.0,0.5443115234375,0.0863037109375,-0.055908203125,-0.00738525390625,-0.007843017578125,0.00457763671875,B,2,2026-08-22_23-06-48,2026-08-22
0.0,0.0,0.0,0.2903225806451613,0.38926174496644295,1.0,1.0,1.0,1.0,1.0,1.0,0.547607421875,0.08447265625,-0.0572509765625,-0.011688232421875,-0.00823974609375,0.002960205078125,B,2,2026-08-22_23-06-48,2026-08-22
0.06363636363636363,0.0,0.12773722627737227,0.29493087557603687,0.24161073825503357,1.0,1.0,1.0,1.0,1.0,1.0,0.550048828125,0.0877685546875,-0.0556640625,-0.014434814453125,-0.00848388671875,0.00555419921875,B,2,2026-08-22_23-06-48,2026-08-22
0.0,0.0,0.021897810218978103,0.29493087557603687,0.348993288590604,1.0,1.0,1.0,1.0,1.0,1.0,0.549072265625,0.09033203125,-0.053466796875,-0.0123291015625,-0.006927490234375,0.006195068359375,B,2,2026-08-22_23-06-48,2026-08-22
0.007272727272727273,0.0,0.16423357664233576,0.14746543778801843,0.8053691275167785,1.0,1.0,1.0,1.0,1.0,1.0,0.5531005859375,0.0885009765625,-0.05810546875,-0.008697509765625,-0.006622314453125,0.00469970703125,B,2,2026-08-22_23-06-48,2026-08-22
0.007272727272727273,0.0,0.0,0.48847926267281105,0.8053691275167785,1.0,1.0,1.0,1.0,1.0,1.0,0.548583984375,0.0882568359375,-0.0626220703125,-0.005279541015625,-0.007843017578125,0.003570556640625,B,2,2026-08-22_23-06-48,2026-08-22
0.06727272727272728,0.0,0.0,0.24423963133640553,0.38926174496644295,1.0,1.0,1.0,1.0,1.0,1.0,0.5526123046875,0.083251953125,-0.0589599609375,-0.008331298828125,-0.009124755859375,0.003448486328125,B,2,2026-08-22_23-06-48,2026-08-22
0.0,0.0,0.0,0.41013824884792627,0.8053691275167785,1.0,1.0,1.0,1.0,1.0,1.0,0.5498046875,0.0882568359375,-0.0543212890625,-0.00994873046875,-0.007720947265625,0.00341796875,B,2,2026-08-22_23-06-48,2026-08-22
0.034545454545454546,0.0,0.0,0.2350230414746544,0.8053691275167785,1.0,1.0,1.0,1.0,1.0,1.0,0.5487060546875,0.0858154296875,-0.057861328125,-0.010498046875,-0.0057373046875,0.005889892578125,B,2,2026-08-22_23-06-48,2026-08-22
0.05454545454545454,0.0,0.0,0.3824884792626728,0.38926174496644295,1.0,1.0,1.0,1.0,1.0,1.0,0.549560546875,0.0833740234375,-0.059814453125,-0.010589599609375,-0.00628662109375,0.006744384765625,B,2,2026-08-22_23-06-48,2026-08-22
0.0,0.0,0.0,0.4147465437788018,0.8053691275167785,1.0,1.0,1.0,1.0,1.0,1.0,0.5469970703125,0.0853271484375,-0.0523681640625,-0.01031494140625,-0.006622314453125,0.00726318359375,B,2,2026-08-22_23-06-48,2026-08-22
0.02909090909090909,0.0,0.0,0.20276497695852536,0.09395973154362416,1.0,1.0,1.0,1.0,1.0,1.0,0.5455322265625,0.0892333984375,-0.0567626953125,-0.00347900390625,-0.008026123046875,0.005859375,B,2,2026-08-22_23-06-48,2026-08-22
0.0,0.0,0.0,0.2534562211981567,0.20134228187919462,1.0,1.0,1.0,1.0,1.0,1.0,0.5426025390625,0.0823974609375,-0.0587158203125,-0.00018310546875,-0.007232666015625,0.004241943359375,B,2,2026-08-22_23-06-48,2026-08-22
0.0,0.0,0.0,0.3456221198156682,0.8053691275167785,1.0,1.0,1.0,1.0,1.0,1.0,0.5460205078125,0.0836181640625,-0.054443359375,-0.001251220703125,-0.00701904296875,0.00543212890625,B,2,2026-08-22_23-06-48,2026-08-22
0.0,0.0,0.0,0.4423963133640553,0.9395973154362416,1.0,1.0,1.0,1.0,1.0,1.0,0.5447998046875,0.09033203125,-0.06494140625,-0.0018310546875,-0.0093994140625,0.007171630859375,B,2,2026-08-22_23-06-48,2026-08-22
0.0,0.0,0.0,0.391705069124424,0.912751677852349,1.0,1.0,1.0,1.0,1.0,1.0,0.5452880859375,0.118896484375,-0.07080078125,0.0445556640625,-0.007232666015625,0.014190673828125,B,2,2026-08-22_23-06-48,2026-08-22
0.0,0.01020408163265306,0.3284671532846715,0.3456221198156682,1.0,1.0,1.0,1.0,1.0,1.0,1.0,0.5523681640625,0.100341796875,-0.0311279296875,-0.00689697265625,-0.0086669921875,0.0067138671875,B,3,2026-08-22_23-06-48,2026-08-22
0.0,0.0,0.0,0.6820276497695853,0.0,1.0,1.0,1.0,1.0,1.0,1.0,0.548583984375,0.0943603515625,-0.0303955078125,-0.0087890625,-0.008331298828125,0.005584716796875,B,3,2026-08-22_23-06-48,2026-08-22
0.0,0.0,0.0,0.3870967741935484,1.0,1.0,1.0,1.0,1.0,1.0,1.0,0.54736328125,0.0958251953125,-0.027587890625,-0.01715087890625,-0.01446533203125,0.002166748046875,B,3,2026-08-22_23-06-48,2026-08-22
0.0036363636363636364,0.0,0.0,0.5622119815668203,0.0,1.0,1.0,1.0,1.0,1.0,1.0,0.5458984375,0.09765625,-0.0291748046875,-0.011810302734375,-0.014190673828125,0.000518798828125,B,3,2026-08-22_23-06-48,2026-08-22
0.007272727272727273,0.0,0.0,0.37327188940092165,0.8322147651006712,1.0,1.0,1.0,1.0,1.0,1.0,0.5452880859375,0.0955810546875,-0.0362548828125,-0.01007080078125,-0.014801025390625,0.000732421875,B,3,2026-08-22_23-06-48,2026-08-22
0.0,0.0,0.0,0.12903225806451613,0.9798657718120806,1.0,1.0,1.0,1.0,1.0,1.0,0.54150390625,0.103759765625,-0.0330810546875,-0.00946044921875,-0.0126953125,0.001953125,B,3,2026-08-22_23-06-48,2026-08-22
0.0,0.0,0.3248175182481752,0.16129032258064516,0.8053691275167785,1.0,1.0,1.0,1.0,1.0,1.0,0.544189453125,0.1031494140625,-0.036376953125,-0.010345458984375,-0.01007080078125,0.003387451171875,B,3,2026-08-22_23-06-48,2026-08-22
0.0,0.0,0.0,0.20276497695852536,0.8053691275167785,1.0,1.0,1.0,1.0,1.0,1.0,0.546630859375,0.101806640625,-0.0367431640625,-0.012359619140625,-0.00970458984375,0.00286865234375,B,3,2026-08-22_23-06-48,2026-08-22
0.0,0.0,0.0,0.3870967741935484,0.37583892617449666,1.0,1.0,1.0,1.0,1.0,1.0,0.5489501953125,0.0987548828125,-0.0260009765625,-0.007080078125,-0.01080322265625,0.00360107421875,B,3,2026-08-22_23-06-48,2026-08-22
0.007272727272727273,0.0,0.0,0.2073732718894009,0.1476510067114094,1.0,1.0,1.0,1.0,1.0,1.0,0.5557861328125,0.09814453125,-0.027099609375,-0.00439453125,-0.01690673828125,0.002044677734375,B,3,2026-08-22_23-06-48,2026-08-22
0.06545454545454546,0.0,0.040145985401459854,0.3271889400921659,0.4966442953020134,1.0,1.0,1.0,1.0,1.0,1.0,0.553955078125,0.0989990234375,-0.04150390625,-0.01300048828125,-0.020721435546875,-0.0003662109375,B,3,2026-08-22_23-06-48,2026-08-22
0.0,0.0,0.0,0.4930875576036866,0.8053691275167785,1.0,1.0,1.0,1.0,1.0,1.0,0.549072265625,0.1055908203125,-0.0345458984375,-0.01580810546875,-0.020660400390625,0.0008544921875,B,3,2026-08-22_23-06-48,2026-08-22
0.0,0.0,0.0,0.33640552995391704,1.0,1.0,1.0,1.0,1.0,1.0,1.0,0.5528564453125,0.1126708984375,-0.0458984375,-0.00958251953125,-0.0145263671875,0.00311279296875,B,3,2026-08-22_23-06-48,2026-08-22
0.00909090909090909,0.0,0.0,0.3686635944700461,0.37583892617449666,1.0,1.0,1.0,1.0,1.0,1.0,0.5537109375,0.1121826171875,-0.04345703125,-0.0068359375,-0.012420654296875,0.003753662109375,B,3,2026-08-22_23-06-48,2026-08-22
0.0,0.0,0.0,0.41935483870967744,0.1476510067114094,1.0,1.0,1.0,1.0,1.0,1.0,0.5511474609375,0.11083984375,-0.042724609375,-0.005401611328125,-0.00750732421875,0.005645751953125,B,3,2026-08-22_23-06-48,2026-08-22
0.0,0.0,0.0,0.2304147465437788,0.8053691275167785,1.0,1.0,1.0,1.0,1.0,1.0,0.5535888671875,0.10400390625,-0.0428466796875,-0.004852294921875,-0.007537841796875,0.009063720703125,B,3,2026-08-22_23-06-48,2026-08-22
0.0,0.0,0.0,0.06451612903225806,0.5234899328859061,1.0,1.0,1.0,1.0,1.0,1.0,0.54931640625,0.1014404296875,-0.036865234375,-0.003387451171875,-0.006927490234375,0.00885009765625,B,3,2026-08-22_23-06-48,2026-08-22
0.06727272727272728,0.0,0.058394160583941604,0.0967741935483871,0.24161073825503357,1.0,1.0,1.0,1.0,1.0,1.0,0.5477294921875,0.0909423828125,-0.034912109375,-0.01336669921875,-0.011993408203125,0.006072998046875,B,3,2026-08-22_23-06-48,2026-08-22
0.0,0.0,0.0,0.2626728110599078,0.4697986577181208,1.0,1.0,1.0,1.0,1.0,1.0,0.5440673828125,0.09765625,-0.0379638671875,-0.0208740234375,-0.011932373046875,0.003143310546875,B,3,2026-08-22_23-06-48,2026-08-22
0.0,0.0,0.0,0.21658986175115208,0.9530201342281879,1.0,1.0,1.0,1.0,1.0,1.0,0.5439453125,0.097900390625,-0.0362548828125,-0.017486572265625,-0.012908935546875,0.0040283203125,B,3,2026-08-22_23-06-48,2026-08-22
0.0,0.0,0.0,0.17511520737327188,0.9798657718120806,1.0,1.0,1.0,1.0,1.0,1.0,0.5439453125,0.09912109375,-0.0367431640625,-0.014556884765625,-0.01116943359375,0.004150390625,B,3,2026-08-22_23-06-48,2026-08-22
0.02181818181818182,0.0,0.0,0.21658986175115208,0.4563758389261745,1.0,1.0,1.0,1.0,1.0,1.0,0.5489501953125,0.1011962890625,-0.0452880859375,-0.011871337890625,-0.00933837890625,0.002685546875,B,3,2026-08-22_23-06-48,2026-08-22
0.0,0.0,0.0,0.2350230414746544,0.9664429530201343,1.0,1.0,1.0,1.0,1.0,1.0,0.5478515625,0.103515625,-0.04248046875,-0.021240234375,-0.007049560546875,0.0018310546875,B,3,2026-08-22_23-06-48,2026-08-22
0.0,0.0,0.0,0.28110599078341014,0.8053691275167785,1.0,1.0,1.0,1.0,1.0,1.0,0.5479736328125,0.1064453125,-0.0369873046875,-0.018646240234375,-0.010009765625,0.006103515625,B,3,2026-08-22_23-06-48,2026-08-22
0.0,0.0,0.0,0.03225806451612903,0.4697986577181208,1.0,1.0,1.0,1.0,1.0,1.0,0.5479736328125,0.1065673828125,-0.041259765625,-0.012664794921875,-0.00518798828125,0.008697509765625,B,3,2026-08-22_23-06-48,2026-08-22
0.0,0.0,0.0,0.11981566820276497,0.8456375838926175,1.0,1.0,1.0,1.0,1.0,1.0,0.54736328125,0.1009521484375,-0.0421142578125,-0.012725830078125,-0.0045166015625,0.00762939453125,B,3,2026-08-22_23-06-48,2026-08-22
0.0,0.0,0.014598540145985401,0.14746543778801843,0.2953020134228188,1.0,1.0,1.0,1.0,1.0,1.0,0.5582275390625,0.0953369140625,-0.034423828125,-0.014251708984375,-0.0059814453125,0.0035400390625,B,3,2026-08-22_23-06-48,2026-08-22
0.22181818181818183,0.0,0.0,0.1152073732718894,0.8187919463087249,1.0,1.0,1.0,1.0,1.0,1.0,0.5550537109375,0.0980224609375,-0.03076171875,-0.012237548828125,-0.012664794921875,0.00146484375,B,3,2026-08-22_23-06-48,2026-08-22
0.0,0.0,0.0,0.059907834101382486,0.2953020134228188,1.0,1.0,1.0,1.0,1.0,1.0,0.5506591796875,0.094970703125,-0.0302734375,-0.013092041015625,-0.016082763671875,-0.002593994140625,B,3,2026-08-22_23-06-48,2026-08-22
0.0,0.0,0.0,0.0,0.40268456375838924,1.0,1.0,1.0,1.0,1.0,1.0,0.55029296875,0.102294921875,-0.0360107421875,-0.01531982421875,-0.02056884765625,-0.003204345703125,B,3,2026-08-22_23-06-48,2026-08-22
0.18545454545454546,0.16156462585034015,0.4562043795620438,0.0,1.0,1.0,1.0,1.0,1.0,1.0,1.0,0.54638671875,0.1063232421875,-0.04541015625,-0.012664794921875,-0.018798828125,-0.003082275390625,B,3,2026-08-22_23-06-48,2026-08-22
0.0,0.011904761904761904,0.7408759124087592,0.4470046082949309,0.0,1.0,1.0,1.0,1.0,1.0,1.0,0.5457763671875,0.1107177734375,-0.0416259765625,-0.00469970703125,-0.019866943359375,0.0,B,3,2026-08-22_23-06-48,2026-08-22
0.08727272727272728,0.0,0.0,0.0,1.0,1.0,1.0,1.0,1.0,1.0,1.0,0.5399169921875,0.10546875,-0.0462646484375,-0.005340576171875,-0.01763916015625,0.000946044921875,B,3,2026-08-22_23-06-48,2026-08-22
0.31636363636363635,0.0,0.0,0.0,1.0,1.0,1.0,1.0,1.0,1.0,1.0,0.54150390625,0.1087646484375,-0.04638671875,-0.01177978515625,-0.013641357421875,9.1552734375e-05,B,3,2026-08-22_23-06-48,2026-08-22
0.034545454545454546,0.0,0.0,0.0,0.8993288590604027,1.0,1.0,1.0,1.0,1.0,1.0,0.544921875,0.109130859375,-0.047119140625,-0.015411376953125,-0.013946533203125,0.00146484375,B,3,2026-08-22_23-06-48,2026-08-22
0.1290909090909091,0.0,0.0,1.0,0.0,1.0,1.0,1.0,1.0,1.0,1.0,0.55224609375,0.108154296875,-0.042236328125,-0.01690673828125,-0.016448974609375,0.00653076171875,B,3,2026-08-22_23-06-48,2026-08-22
0.0,0.0,0.06204379562043796,0.9815668202764977,0.0,1.0,1.0,1.0,1.0,1.0,1.0,0.548583984375,0.103759765625,-0.0408935546875,-0.013824462890625,-0.014923095703125,0.009490966796875,B,3,2026-08-22_23-06-48,2026-08-22
0.0,0.0,0.0,0.6175115207373272,0.0,1.0,1.0,1.0,1.0,1.0,1.0,0.551025390625,0.096435546875,-0.0400390625,-0.015625,-0.014923095703125,0.009002685546875,B,3,2026-08-22_23-06-48,2026-08-22
0.0,0.0,0.0,0.5161290322580645,0.0,1.0,1.0,1.0,1.0,1.0,1.0,0.548095703125,0.09814453125,-0.0361328125,-0.02001953125,-0.014739990234375,0.005462646484375,B,3,2026-08-22_23-06-48,2026-08-22
0.038181818181818185,0.02040816326530612,0.40145985401459855,0.3087557603686636,0.0,1.0,1.0,1.0,1.0,1.0,1.0,0.547607421875,0.09814453125,-0.0445556640625,-0.016754150390625,-0.011993408203125,0.00433349609375,B,3,2026-08-22_23-06-48,2026-08-22
0.0,1.0,0.0,1.0,0.8053691275167785,1.0,1.0,1.0,1.0,1.0,1.0,0.536865234375,0.1500244140625,-0.0504150390625,-0.002838134765625,-0.00994873046875,-0.013214111328125,B,4,2026-08-22_23-06-48,2026-08-22
0.4072727272727273,1.0,0.40875912408759124,1.0,0.42953020134228187,1.0,1.0,1.0,1.0,1.0,1.0,0.5323486328125,0.1529541015625,-0.044189453125,0.001068115234375,-0.0047607421875,-0.010711669921875,B,4,2026-08-22_23-06-48,2026-08-22
0.10181818181818182,1.0,0.5912408759124088,1.0,0.0,1.0,1.0,1.0,1.0,1.0,1.0,0.537353515625,0.151611328125,-0.0443115234375,0.001190185546875,0.001495361328125,-0.006805419921875,B,4,2026-08-22_23-06-48,2026-08-22
0.12181818181818181,1.0,0.0,1.0,1.0,1.0,1.0,1.0,1.0,1.0,1.0,0.5360107421875,0.1507568359375,-0.04638671875,-0.00018310546875,0.00189208984375,-0.005462646484375,B,4,2026-08-22_23-06-48,2026-08-22
0.0,1.0,0.7554744525547445,1.0,0.0,1.0,1.0,1.0,1.0,1.0,1.0,0.538818359375,0.1490478515625,-0.037353515625,-0.002532958984375,0.001434326171875,-0.001251220703125,B,4,2026-08-22_23-06-48,2026-08-22
0.28,1.0,0.0,1.0,0.0,1.0,1.0,1.0,1.0,1.0,1.0,0.5338134765625,0.1483154296875,-0.0389404296875,-0.0091552734375,-0.002105712890625,-0.0010986328125,B,4,2026-08-22_23-06-48,2026-08-22
0.24181818181818182,1.0,0.0,1.0,0.0,1.0,1.0,1.0,1.0,1.0,1.0,0.532470703125,0.1478271484375,-0.034423828125,-0.016876220703125,-0.00494384765625,0.00067138671875,B,4,2026-08-22_23-06-48,2026-08-22
0.10909090909090909,1.0,0.0,1.0,0.8187919463087249,1.0,1.0,1.0,1.0,1.0,1.0,0.5313720703125,0.1500244140625,-0.0396728515625,-0.01348876953125,-0.005218505859375,0.003875732421875,B,4,2026-08-22_23-06-48,2026-08-22
0.24,1.0,0.0,1.0,0.0,1.0,1.0,1.0,1.0,1.0,1.0,0.533935546875,0.1495361328125,-0.0322265625,-0.0062255859375,-0.00787353515625,0.00506591796875,B,4,2026-08-22_23-06-48,2026-08-22
0.13454545454545455,1.0,0.0,1.0,0.0,1.0,1.0,1.0,1.0,1.0,1.0,0.5323486328125,0.1488037109375,-0.0374755859375,-0.006072998046875,-0.01080322265625,0.004486083984375,B,4,2026-08-22_23-06-48,2026-08-22
0.0,1.0,0.0,1.0,0.9395973154362416,1.0,1.0,1.0,1.0,1.0,1.0,0.5380859375,0.150634765625,-0.0374755859375,-0.008209228515625,-0.0107421875,0.0057373046875,B,4,2026-08-22_23-06-48,2026-08-22
0.04727272727272727,1.0,0.0,1.0,1.0,1.0,1.0,1.0,1.0,1.0,1.0,0.53271484375,0.1534423828125,-0.0400390625,-0.005096435546875,-0.011962890625,0.010009765625,B,4,2026-08-22_23-06-48,2026-08-22
0.0,1.0,0.0,1.0,0.0,1.0,1.0,1.0,1.0,1.0,1.0,0.537841796875,0.146728515625,-0.0386962890625,-0.00048828125,-0.012481689453125,0.012603759765625,B,4,2026-08-22_23-06-48,2026-08-22
0.0,1.0,0.0,1.0,0.8053691275167785,1.0,1.0,1.0,1.0,1.0,1.0,0.53466796875,0.141357421875,-0.041259765625,-0.002899169921875,-0.014251708984375,0.00982666015625,B,4,2026-08-22_23-06-48,2026-08-22
0.0,1.0,0.3029197080291971,1.0,0.8053691275167785,1.0,1.0,1.0,1.0,1.0,1.0,0.53759765625,0.1397705078125,-0.0411376953125,-0.007110595703125,-0.01318359375,0.00592041015625,B,4,2026-08-22_23-06-48,2026-08-22
0.0,1.0,0.0,1.0,0.5100671140939598,1.0,1.0,1.0,1.0,1.0,1.0,0.5377197265625,0.1405029296875,-0.039794921875,-0.008544921875,-0.015625,0.00567626953125,B,4,2026-08-22_23-06-48,2026-08-22
0.0,1.0,0.0,1.0,0.8590604026845637,1.0,1.0,1.0,1.0,1.0,1.0,0.5401611328125,0.1444091796875,-0.0418701171875,-0.005157470703125,-0.01422119140625,0.00567626953125,B,4,2026-08-22_23-06-48,2026-08-22
0.0,1.0,0.0,1.0,0.9395973154362416,1.0,1.0,1.0,1.0,1.0,1.0,0.540771484375,0.1383056640625,-0.053466796875,-0.00439453125,-0.01068115234375,0.004791259765625,B,4,2026-08-22_23-06-48,2026-08-22
0.02181818181818182,1.0,0.025547445255474453,1.0,0.22818791946308725,1.0,1.0,1.0,1.0,1.0,1.0,0.5443115234375,0.141845703125,-0.0504150390625,-0.006866455078125,-0.008636474609375,0.003662109375,B,4,2026-08-22_23-06-48,2026-08-22
0.0,1.0,0.01824817518248175,1.0,0.0,1.0,1.0,1.0,1.0,1.0,1.0,0.5447998046875,0.143798828125,-0.050537109375,-0.009429931640625,-0.0064697265625,0.005035400390625,B,4,2026-08-22_23-06-48,2026-08-22
0.0,1.0,0.0,1.0,0.5100671140939598,1.0,1.0,1.0,1.0,1.0,1.0,0.5433349609375,0.144287109375,-0.045654296875,-0.01141357421875,-0.0079345703125,0.00732421875,B,4,2026-08-22_23-06-48,2026-08-22
0.0,1.0,0.0,1.0,0.8053691275167785,1.0,1.0,1.0,1.0,1.0,1.0,0.5440673828125,0.142333984375,-0.0423583984375,-0.010894775390625,-0.005584716796875,0.008087158203125,B,4,2026-08-22_23-06-48,2026-08-22
0.0,1.0,0.09124087591240876,1.0,0.20134228187919462,1.0,1.0,1.0,1.0,1.0,1.0,0.5413818359375,0.144287109375,-0.041748046875,-0.00811767578125,-0.00579833984375,0.005157470703125,B,4,2026-08-22_23-06-48,2026-08-22
0.0,1.0,0.0,1.0,0.8053691275167785,1.0,1.0,1.0,1.0,1.0,1.0,0.5390625,0.142333984375,-0.0433349609375,-0.00421142578125,-0.0045166015625,0.001220703125,B,4,2026-08-22_23-06-48,2026-08-22
0.0,1.0,0.0,1.0,0.348993288590604,1.0,1.0,1.0,1.0,1.0,1.0,0.5404052734375,0.14013671875,-0.048583984375,-0.00274658203125,-0.005096435546875,0.000885009765625,B,4,2026-08-22_23-06-48,2026-08-22
0.0,1.0,0.058394160583941604,1.0,0.8053691275167785,1.0,1.0,1.0,1.0,1.0,1.0,0.542724609375,0.1373291015625,-0.042236328125,-0.005889892578125,-0.010162353515625,0.000518798828125,B,4,2026-08-22_23-06-48,2026-08-22
0.00909090909090909,1.0,0.0,1.0,0.8053691275167785,1.0,1.0,1.0,1.0,1.0,1.0,0.534912109375,0.1373291015625,-0.042724609375,-0.008697509765625,-0.011566162109375,0.0018310546875,B,4,2026-08-22_23-06-48,2026-08-22
0.0,1.0,0.04744525547445255,1.0,0.5100671140939598,1.0,1.0,1.0,1.0,1.0,1.0,0.5355224609375,0.142333984375,-0.0458984375,-0.010711669921875,-0.011199951171875,0.0008544921875,B,4,2026-08-22_23-06-48,2026-08-22
0.0,1.0,0.0,1.0,0.8053691275167785,1.0,1.0,1.0,1.0,1.0,1.0,0.535400390625,0.1456298828125,-0.0426025390625,-0.0068359375,-0.00921630859375,-0.001220703125,B,4,2026-08-22_23-06-48,2026-08-22
0.0,1.0,0.0364963503649635,1.0,0.42953020134228187,1.0,1.0,1.0,1.0,1.0,1.0,0.539306640625,0.1416015625,-0.0501708984375,-0.001800537109375,-0.006134033203125,-0.001617431640625,B,4,2026-08-22_23-06-48,2026-08-22
0.04,1.0,0.010948905109489052,1.0,0.38926174496644295,1.0,1.0,1.0,1.0,1.0,1.0,0.537841796875,0.1478271484375,-0.0474853515625,-0.002471923828125,-0.006866455078125,-0.000640869140625,B,4,2026-08-22_23-06-48,2026-08-22
0.02,0.0,0.05474452554744526,1.0,0.21476510067114093,1.0,1.0,1.0,1.0,1.0,1.0,0.5372314453125,0.144287109375,-0.047119140625,-0.006866455078125,-0.00494384765625,0.002197265625,B,4,2026-08-22_23-06-48,2026-08-22
0.0,0.0,0.0,1.0,0.8053691275167785,1.0,1.0,1.0,1.0,1.0,1.0,0.5361328125,0.1466064453125,-0.0465087890625,-0.01092529296875,-0.004547119140625,0.0030517578125,B,4,2026-08-22_23-06-48,2026-08-22
0.0,0.0,0.0,1.0,0.8053691275167785,1.0,1.0,1.0,1.0,1.0,1.0,0.5406494140625,0.1475830078125,-0.0418701171875,-0.0054931640625,-0.003021240234375,0.00384521484375,B,4,2026-08-22_23-06-48,2026-08-22
0.005454545454545455,1.0,0.09124087591240876,1.0,0.38926174496644295,1.0,1.0,1.0,1.0,1.0,1.0,0.53662109375,0.144775390625,-0.0419921875,-0.007476806640625,-0.005126953125,0.003448486328125,B,4,2026-08-22_23-06-48,2026-08-22
0.04909090909090909,1.0,0.15693430656934307,1.0,0.37583892617449666,1.0,1.0,1.0,1.0,1.0,1.0,0.5418701171875,0.145263671875,-0.0445556640625,-0.007568359375,-0.008575439453125,0.0040283203125,B,4,2026-08-22_23-06-48,2026-08-22
0.0,1.0,0.0,1.0,0.20134228187919462,1.0,1.0,1.0,1.0,1.0,1.0,0.5379638671875,0.1446533203125,-0.0423583984375,-0.00335693359375,-0.013397216796875,0.005157470703125,B,4,2026-08-22_23-06-48,2026-08-22
0.0,1.0,0.0,1.0,0.8053691275167785,1.0,1.0,1.0,1.0,1.0,1.0,0.533935546875,0.148681640625,-0.050537109375,-0.0037841796875,-0.00823974609375,0.0045166015625,B,4,2026-08-22_23-06-48,2026-08-22
0.007272727272727273,1.0,0.0,1.0,0.8053691275167785,1.0,1.0,1.0,1.0,1.0,1.0,0.533935546875,0.1466064453125,-0.0438232421875,-0.00830078125,-0.007781982421875,0.00653076171875,B,4,2026-08-22_23-06-48,2026-08-22
0.0,0.0,0.014598540145985401,1.0,0.33557046979865773,1.0,1.0,1.0,1.0,1.0,1.0,0.5352783203125,0.13916015625,-0.0465087890625,-0.009063720703125,-0.006103515625,0.00732421875,B,4,2026-08-22_23-06-48,2026-08-22
0.9436363636363636,0.8350340136054422,0.8759124087591241,0.7603686635944701,0.174496644295302,1.0,1.0,1.0,1.0,1.0,0.0,0.5244140625,0.1270751953125,0.14013671875,-0.003448486328125,-0.000946044921875,0.007476806640625,A,0,2026-08-22_23-06-48,2026-08-22
1.0,0.7636054421768708,0.9927007299270073,0.7649769585253456,0.2684563758389262,1.0,1.0,1.0,1.0,1.0,0.0,0.5272216796875,0.1304931640625,0.15234375,-0.001190185546875,0.001251220703125,0.007568359375,A,0,2026-08-22_23-06-48,2026-08-22
1.0,0.8452380952380952,0.9744525547445255,0.9078341013824884,0.0,1.0,1.0,1.0,1.0,1.0,0.0,0.5262451171875,0.126708984375,0.1502685546875,-0.0018310546875,0.0009765625,0.007843017578125,A,0,2026-08-22_23-06-48,2026-08-22
0.9109090909090909,0.8928571428571429,0.8795620437956204,0.9032258064516129,0.1342281879194631,1.0,1.0,1.0,1.0,1.0,0.0,0.5274658203125,0.12255859375,0.1591796875,-0.0040283203125,-0.000274658203125,0.004364013671875,A,0,2026-08-22_23-06-48,2026-08-22
0.9072727272727272,0.9251700680272109,0.8759124087591241,1.0,0.1476510067114094,1.0,1.0,1.0,1.0,1.0,0.0,0.5247802734375,0.1270751953125,0.159912109375,-0.008056640625,-0.001678466796875,6.103515625e-05,A,0,2026-08-22_23-06-48,2026-08-22
1.0,0.8180272108843537,1.0,0.7419354838709677,0.0,1.0,1.0,1.0,1.0,1.0,0.0,0.524658203125,0.135009765625,0.1534423828125,-0.0072021484375,-0.0025634765625,-0.00128173828125,A,0,2026-08-22_23-06-48,2026-08-22
0.9127272727272727,0.9064625850340136,0.8138686131386861,1.0,0.1476510067114094,1.0,1.0,1.0,1.0,1.0,0.0,0.5216064453125,0.1363525390625,0.1549072265625,-0.00750732421875,-0.002227783203125,0.000701904296875,A,0,2026-08-22_23-06-48,2026-08-22
0.9272727272727272,0.9217687074829932,0.791970802919708,1.0,0.3624161073825503,1.0,1.0,1.0,1.0,1.0,0.0,0.5185546875,0.1397705078125,0.158447265625,-0.00384521484375,0.000732421875,0.0035400390625,A,0,2026-08-22_23-06-48,2026-08-22
1.0,0.8520408163265306,0.7591240875912408,1.0,0.2953020134228188,1.0,1.0,1.0,1.0,1.0,0.0,0.5235595703125,0.1334228515625,0.166015625,-0.000579833984375,-0.004180908203125,0.00738525390625,A,0,2026-08-22_23-06-48,2026-08-22
1.0,0.8333333333333334,1.0,0.7511520737327189,0.33557046979865773,1.0,1.0,1.0,1.0,1.0,0.0,0.520751953125,0.1292724609375,0.1600341796875,0.0001220703125,-0.00982666015625,0.006805419921875,A,0,2026-08-22_23-06-48,2026-08-22
1.0,0.8061224489795918,1.0,0.7788018433179723,0.0,1.0,1.0,1.0,1.0,1.0,0.0,0.515869140625,0.1260986328125,0.1524658203125,-0.006622314453125,-0.011749267578125,0.001251220703125,A,0,2026-08-22_23-06-48,2026-08-22
1.0,0.8809523809523809,0.8868613138686131,1.0,0.2953020134228188,1.0,1.0,1.0,1.0,1.0,0.0,0.515869140625,0.1317138671875,0.1551513671875,-0.008392333984375,-0.012481689453125,0.00018310546875,A,0,2026-08-22_23-06-48,2026-08-22
1.0,0.814625850340136,0.9343065693430657,0.7235023041474654,0.18791946308724833,1.0,1.0,1.0,1.0,1.0,0.0,0.5211181640625,0.132568359375,0.1507568359375,-0.011627197265625,-0.01361083984375,0.000213623046875,A,0,2026-08-22_23-06-48,2026-08-22
0.9854545454545455,0.8520408163265306,0.9233576642335767,0.8940092165898618,0.0,1.0,1.0,1.0,1.0,1.0,0.0,0.5177001953125,0.1331787109375,0.1500244140625,-0.0164794921875,-0.012237548828125,-0.000457763671875,A,0,2026-08-22_23-06-48,2026-08-22
1.0,0.7704081632653061,1.0,0.6543778801843319,0.12080536912751678,1.0,1.0,1.0,1.0,1.0,0.0,0.520263671875,0.140625,0.1502685546875,-0.013946533203125,-0.01043701171875,0.00189208984375,A,0,2026-08-22_23-06-48,2026-08-22
0.94,0.8741496598639455,0.8576642335766423,1.0,0.37583892617449666,1.0,1.0,1.0,1.0,1.0,0.0,0.5250244140625,0.1351318359375,0.14892578125,-0.015533447265625,-0.013214111328125,0.00347900390625,A,0,2026-08-22_23-06-48,2026-08-22
1.0,0.8979591836734694,0.9598540145985401,0.9723502304147466,0.22818791946308725,1.0,1.0,1.0,1.0,1.0,0.0,0.525146484375,0.143310546875,0.1478271484375,-0.017303466796875,-0.015350341796875,0.0025634765625,A,0,2026-08-22_23-06-48,2026-08-22
1.0,0.8282312925170068,0.9051094890510949,0.695852534562212,0.1476510067114094,1.0,1.0,1.0,1.0,1.0,0.0,0.5244140625,0.142822265625,0.145751953125,-0.016998291015625,-0.01715087890625,0.005218505859375,A,0,2026-08-22_23-06-48,2026-08-22
0.9890909090909091,0.8248299319727891,1.0,0.6589861751152074,0.10738255033557047,1.0,1.0,1.0,1.0,1.0,0.0,0.5245361328125,0.140380859375,0.1436767578125,-0.019134521484375,-0.01556396484375,0.008575439453125,A,0,2026-08-22_23-06-48,2026-08-22
1.0,0.7840136054421769,1.0,0.7188940092165899,0.28187919463087246,1.0,1.0,1.0,1.0,1.0,0.0,0.5250244140625,0.135986328125,0.1446533203125,-0.0152587890625,-0.013153076171875,0.01153564453125,A,0,2026-08-22_23-06-48,2026-08-22
1.0,0.7755102040816326,1.0,0.9078341013824884,0.1610738255033557,1.0,1.0,1.0,1.0,1.0,0.0,0.5234375,0.136962890625,0.1480712890625,-0.01580810546875,-0.0107421875,0.01019287109375,A,0,2026-08-22_23-06-48,2026-08-22
1.0,0.8486394557823129,1.0,0.7419354838709677,0.06711409395973154,1.0,1.0,1.0,1.0,1.0,0.0,0.5238037109375,0.129638671875,0.149658203125,-0.013763427734375,-0.009735107421875,0.01025390625,A,0,2026-08-22_23-06-48,2026-08-22
0.9072727272727272,0.8792517006802721,0.781021897810219,0.8847926267281107,0.1342281879194631,1.0,1.0,1.0,1.0,1.0,0.0,0.5262451171875,0.1214599609375,0.1474609375,-0.010711669921875,-0.010284423828125,0.009613037109375,A,0,2026-08-22_23-06-48,2026-08-22
0.9490909090909091,0.8503401360544217,0.8941605839416058,0.7511520737327189,0.026845637583892617,1.0,1.0,1.0,1.0,1.0,0.0,0.526611328125,0.1180419921875,0.1544189453125,-0.013092041015625,-0.01025390625,0.00482177734375,A,0,2026-08-22_23-06-48,2026-08-22
0.96,0.9268707482993197,0.6605839416058394,1.0,0.2953020134228188,1.0,1.0,1.0,1.0,1.0,0.0,0.5283203125,0.12353515625,0.1585693359375,-0.01422119140625,-0.012176513671875,-0.000701904296875,A,0,2026-08-22_23-06-48,2026-08-22
0.9927272727272727,0.8860544217687075,0.8832116788321168,0.9723502304147466,0.8053691275167785,1.0,1.0,1.0,1.0,1.0,0.0,0.521484375,0.12451171875,0.155029296875,-0.014373779296875,-0.01385498046875,-0.002838134765625,A,0,2026-08-22_23-06-48,2026-08-22
1.0,0.7721088435374149,1.0,0.7327188940092166,0.1476510067114094,1.0,1.0,1.0,1.0,1.0,0.0,0.521728515625,0.12939453125,0.147216796875,-0.0167236328125,-0.010162353515625,-0.003448486328125,A,0,2026-08-22_23-06-48,2026-08-22
1.0,0.7806122448979592,1.0,0.6820276497695853,0.37583892617449666,1.0,1.0,1.0,1.0,1.0,0.0,0.5277099609375,0.1356201171875,0.1505126953125,-0.014251708984375,-0.006500244140625,-0.00140380859375,A,0,2026-08-22_23-06-48,2026-08-22
0.9672727272727273,0.7721088435374149,1.0,0.6866359447004609,0.1476510067114094,1.0,1.0,1.0,1.0,1.0,0.0,0.52490234375,0.1385498046875,0.149658203125,-0.007965087890625,-0.005615234375,0.00396728515625,A,0,2026-08-22_23-06-48,2026-08-22
1.0,0.7159863945578231,1.0,0.7880184331797235,0.0,1.0,1.0,1.0,1.0,1.0,0.0,0.5230712890625,0.1329345703125,0.1490478515625,-0.0064697265625,-0.005126953125,0.00469970703125,A,0,2026-08-22_23-06-48,2026-08-22
0.9781818181818182,0.814625850340136,0.7846715328467153,0.9539170506912442,0.24161073825503357,1.0,1.0,1.0,1.0,1.0,0.0,0.5234375,0.128173828125,0.152587890625,-0.00628662109375,-0.00390625,0.0028076171875,A,0,2026-08-22_23-06-48,2026-08-22
0.9690909090909091,0.9336734693877551,0.8759124087591241,1.0,0.8053691275167785,1.0,1.0,1.0,1.0,1.0,0.0,0.5184326171875,0.1363525390625,0.1580810546875,-0.0079345703125,-0.007232666015625,0.0023193359375,A,0,2026-08-22_23-06-48,2026-08-22
0.9109090909090909,0.9200680272108843,0.791970802919708,0.9539170506912442,0.8053691275167785,1.0,1.0,1.0,1.0,1.0,0.0,0.5179443359375,0.1353759765625,0.152099609375,-0.0072021484375,-0.009033203125,0.004608154296875,A,0,2026-08-22_23-06-48,2026-08-22
0.9709090909090909,0.9098639455782312,0.9927007299270073,0.9354838709677419,0.0,1.0,1.0,1.0,1.0,1.0,0.0,0.52197265625,0.1317138671875,0.1502685546875,-0.009674072265625,-0.012481689453125,0.002899169921875,A,0,2026-08-22_23-06-48,2026-08-22
1.0,0.8639455782312925,0.9817518248175182,1.0,0.24161073825503357,1.0,1.0,1.0,1.0,1.0,0.0,0.5201416015625,0.1334228515625,0.1513671875,-0.010528564453125,-0.01513671875,0.00067138671875,A,0,2026-08-22_23-06-48,2026-08-22
1.0,0.891156462585034,0.8868613138686131,0.7373271889400922,0.4161073825503356,1.0,1.0,1.0,1.0,1.0,0.0,0.5185546875,0.1412353515625,0.150390625,-0.011749267578125,-0.01531982421875,0.00384521484375,A,0,2026-08-22_23-06-48,2026-08-22
1.0,0.9506802721088435,1.0,1.0,0.4966442953020134,1.0,1.0,1.0,1.0,1.0,0.0,0.5244140625,0.14404296875,0.14501953125,-0.005096435546875,-0.014923095703125,0.009765625,A,0,2026-08-22_23-06-48,2026-08-22
1.0,0.7653061224489796,0.5875912408759124,0.7327188940092166,0.0,1.0,1.0,1.0,1.0,1.0,0.0,0.5260009765625,0.142822265625,0.1448974609375,0.0064697265625,-0.014312744140625,0.0191650390625,A,0,2026-08-22_23-06-48,2026-08-22
1.0,0.826530612244898,0.8941605839416058,1.0,0.3087248322147651,1.0,1.0,1.0,1.0,1.0,0.0,0.5223388671875,0.1373291015625,0.145263671875,0.018890380859375,-0.008697509765625,0.02587890625,A,0,2026-08-22_23-06-48,2026-08-22
1.0,0.8962585034013606,0.9379562043795621,0.9447004608294931,0.0,1.0,1.0,1.0,1.0,1.0,0.0,0.526123046875,0.118408203125,0.14404296875,0.025421142578125,0.001495361328125,0.023345947265625,A,0,2026-08-22_23-06-48,2026-08-22
0.9490909090909091,0.8928571428571429,0.9379562043795621,1.0,0.348993288590604,1.0,1.0,1.0,1.0,1.0,0.0,0.5416259765625,0.1080322265625,0.1082763671875,-0.00592041015625,-0.016143798828125,0.001556396484375,A,1,2026-08-22_23-06-48,2026-08-22
0.9618181818181818,0.8469387755102041,0.9379562043795621,0.9216589861751152,0.1610738255033557,1.0,1.0,1.0,1.0,1.0,0.0,0.5391845703125,0.1116943359375,0.1051025390625,-0.01153564453125,-0.016021728515625,0.0023193359375,A,1,2026-08-22_23-06-48,2026-08-22
0.9981818181818182,0.8894557823129252,0.9927007299270073,1.0,0.28187919463087246,1.0,1.0,1.0,1.0,1.0,0.0,0.5391845703125,0.1094970703125,0.106689453125,-0.00750732421875,-0.013458251953125,0.008026123046875,A,1,2026-08-22_23-06-48,2026-08-22
0.9581818181818181,0.8809523809523809,0.8832116788321168,0.815668202764977,0.4966442953020134,1.0,1.0,1.0,1.0,1.0,0.0,0.5377197265625,0.102294921875,0.1033935546875,-0.006103515625,-0.010009765625,0.006256103515625,A,1,2026-08-22_23-06-48,2026-08-22
0.9327272727272727,0.9081632653061225,0.7043795620437956,0.9585253456221198,0.013422818791946308,1.0,1.0,1.0,1.0,1.0,0.0,0.5430908203125,0.1036376953125,0.1053466796875,-0.00262451171875,-0.008209228515625,0.005584716796875,A,1,2026-08-22_23-06-48,2026-08-22
1.0,0.8435374149659864,0.8941605839416058,0.7880184331797235,0.37583892617449666,1.0,1.0,1.0,1.0,1.0,0.0,0.5416259765625,0.10498046875,0.1060791015625,-0.004486083984375,-0.006927490234375,0.004669189453125,A,1,2026-08-22_23-06-48,2026-08-22
1.0,0.8809523809523809,0.9233576642335767,1.0,0.3087248322147651,1.0,1.0,1.0,1.0,1.0,0.0,0.542724609375,0.1029052734375,0.1021728515625,-0.000518798828125,-0.004486083984375,0.007080078125,A,1,2026-08-22_23-06-48,2026-08-22
0.94,0.9693877551020408,0.791970802919708,1.0,0.8053691275167785,1.0,1.0,1.0,1.0,1.0,0.0,0.546142578125,0.08984375,0.1033935546875,-0.00311279296875,-0.00567626953125,0.00115966796875,A,1,2026-08-22_23-06-48,2026-08-22
1.0,0.858843537414966,0.9963503649635036,0.8940092165898618,0.013422818791946308,1.0,1.0,1.0,1.0,1.0,0.0,0.53857421875,0.1002197265625,0.10205078125,-0.01312255859375,-0.004241943359375,-0.005859375,A,1,2026-08-22_23-06-48,2026-08-22
0.8818181818181818,0.9659863945578231,0.9124087591240876,0.8663594470046083,0.21476510067114093,1.0,1.0,1.0,1.0,1.0,0.0,0.538818359375,0.10791015625,0.0994873046875,3.0517578125e-05,-0.005157470703125,-0.003204345703125,A,1,2026-08-22_23-06-48,2026-08-22
1.0,0.8044217687074829,1.0,0.6866359447004609,0.18791946308724833,1.0,1.0,1.0,1.0,1.0,0.0,0.5445556640625,0.110595703125,0.102294921875,0.00384521484375,0.0035400390625,-0.004852294921875,A,1,2026-08-22_23-06-48,2026-08-22
0.9709090909090909,0.9370748299319728,0.7445255474452555,1.0,0.4161073825503356,1.0,1.0,1.0,1.0,1.0,0.0,0.547607421875,0.10693359375,0.1080322265625,-0.000762939453125,0.002655029296875,-0.008148193359375,A,1,2026-08-22_23-06-48,2026-08-22
0.9927272727272727,0.8605442176870748,0.8211678832116789,0.7373271889400922,0.22818791946308725,1.0,1.0,1.0,1.0,1.0,0.0,0.5460205078125,0.1087646484375,0.112548828125,-0.003753662109375,-0.00311279296875,-0.00579833984375,A,1,2026-08-22_23-06-48,2026-08-22
0.9418181818181818,0.8639455782312925,0.708029197080292,0.8940092165898618,0.5369127516778524,1.0,1.0,1.0,1.0,1.0,0.0,0.537841796875,0.11279296875,0.105712890625,-0.009765625,-0.0045166015625,-0.0030517578125,A,1,2026-08-22_23-06-48,2026-08-22
0.9109090909090909,0.8656462585034014,0.9379562043795621,0.6728110599078341,0.21476510067114093,1.0,1.0,1.0,1.0,1.0,0.0,0.5423583984375,0.116455078125,0.1126708984375,-0.006988525390625,-0.0028076171875,-0.00225830078125,A,1,2026-08-22_23-06-48,2026-08-22
1.0,0.8503401360544217,0.9817518248175182,0.8617511520737328,0.24161073825503357,1.0,1.0,1.0,1.0,1.0,0.0,0.53857421875,0.1168212890625,0.108642578125,-0.00836181640625,-0.001434326171875,-0.001922607421875,A,1,2026-08-22_23-06-48,2026-08-22
0.9272727272727272,0.8996598639455783,0.7408759124087592,0.9723502304147466,0.0,1.0,1.0,1.0,1.0,1.0,0.0,0.5438232421875,0.1124267578125,0.113525390625,-0.016510009765625,-0.003753662109375,-0.00079345703125,A,1,2026-08-22_23-06-48,2026-08-22
1.0,0.8112244897959183,1.0,0.5944700460829493,0.0,1.0,1.0,1.0,1.0,1.0,0.0,0.541748046875,0.115234375,0.1148681640625,-0.016265869140625,-0.007171630859375,0.002899169921875,A,1,2026-08-22_23-06-48,2026-08-22
1.0,0.8095238095238095,1.0,0.7235023041474654,0.053691275167785234,1.0,1.0,1.0,1.0,1.0,0.0,0.5374755859375,0.1063232421875,0.109375,-0.018096923828125,-0.00579833984375,-0.001434326171875,A,1,2026-08-22_23-06-48,2026-08-22
0.8818181818181818,0.9574829931972789,0.6788321167883211,1.0,0.013422818791946308,1.0,1.0,1.0,1.0,1.0,0.0,0.5399169921875,0.10595703125,0.107177734375,-0.020294189453125,-0.004425048828125,-0.005889892578125,A,1,2026-08-22_23-06-48,2026-08-22
0.88,0.8928571428571429,0.7664233576642335,1.0,0.4563758389261745,1.0,1.0,1.0,1.0,1.0,0.0,0.5413818359375,0.107666015625,0.1162109375,-0.02020263671875,-0.00830078125,-0.00640869140625,A,1,2026-08-22_23-06-48,2026-08-22
0.9927272727272727,0.8826530612244898,0.8248175182481752,1.0,0.2953020134228188,1.0,1.0,1.0,1.0,1.0,0.0,0.541015625,0.10498046875,0.109130859375,-0.02435302734375,-0.008880615234375,-0.008697509765625,A,1,2026-08-22_23-06-48,2026-08-22
1.0,0.9081632653061225,0.9854014598540146,0.8110599078341014,0.053691275167785234,1.0,1.0,1.0,1.0,1.0,0.0,0.5360107421875,0.1112060546875,0.1065673828125,-0.022430419921875,-0.00604248046875,-0.00909423828125,A,1,2026-08-22_23-06-48,2026-08-22
1.0,0.8248299319727891,1.0,0.8847926267281107,0.1342281879194631,1.0,1.0,1.0,1.0,1.0,0.0,0.5372314453125,0.11328125,0.1104736328125,-0.01409912109375,-0.00262451171875,-0.004425048828125,A,1,2026-08-22_23-06-48,2026-08-22
1.0,0.9387755102040817,0.8832116788321168,1.0,0.22818791946308725,1.0,1.0,1.0,1.0,1.0,0.0,0.5369873046875,0.109375,0.1060791015625,-0.011383056640625,-0.002655029296875,-0.003997802734375,A,1,2026-08-22_23-06-48,2026-08-22
0.9709090909090909,0.7721088435374149,0.9927007299270073,0.7603686635944701,0.33557046979865773,1.0,1.0,1.0,1.0,1.0,0.0,0.54052734375,0.115478515625,0.112548828125,-0.014129638671875,-0.0013427734375,-0.00628662109375,A,1,2026-08-22_23-06-48,2026-08-22
1.0,0.858843537414966,1.0,0.7373271889400922,0.8053691275167785,1.0,1.0,1.0,1.0,1.0,0.0,0.5360107421875,0.1131591796875,0.11669921875,-0.009307861328125,-0.00262451171875,-0.001739501953125,A,1,2026-08-22_23-06-48,2026-08-22
1.0,0.8078231292517006,0.7481751824817519,1.0,0.8053691275167785,1.0,1.0,1.0,1.0,1.0,0.0,0.5350341796875,0.112548828125,0.1158447265625,-0.010772705078125,-0.002777099609375,-0.000579833984375,A,1,2026-08-22_23-06-48,2026-08-22
1.0,0.8996598639455783,0.9963503649635036,1.0,0.0,1.0,1.0,1.0,1.0,1.0,0.0,0.5306396484375,0.11474609375,0.1197509765625,-0.01385498046875,-0.0029296875,-0.001373291015625,A,1,2026-08-22_23-06-48,2026-08-22
0.9636363636363636,0.9013605442176871,0.8759124087591241,0.9262672811059908,0.0,1.0,1.0,1.0,1.0,1.0,0.0,0.532470703125,0.110107421875,0.1170654296875,-0.004425048828125,-0.004852294921875,0.001922607421875,A,1,2026-08-22_23-06-48,2026-08-22
1.0,0.8214285714285714,1.0,1.0,0.0,1.0,1.0,1.0,1.0,1.0,0.0,0.533203125,0.1102294921875,0.1204833984375,-0.0106201171875,-0.006622314453125,-0.002410888671875,A,1,2026-08-22_23-06-48,2026-08-22
1.0,0.9523809523809523,1.0,1.0,0.053691275167785234,1.0,1.0,1.0,1.0,1.0,0.0,0.5316162109375,0.1143798828125,0.115478515625,-0.01177978515625,-0.008331298828125,-0.003143310546875,A,1,2026-08-22_23-06-48,2026-08-22
1.0,0.8843537414965986,1.0,0.8847926267281107,0.0,1.0,1.0,1.0,1.0,1.0,0.0,0.5360107421875,0.1142578125,0.1165771484375,-0.01177978515625,-0.010467529296875,-0.000244140625,A,1,2026-08-22_23-06-48,2026-08-22
1.0,0.9931972789115646,0.6934306569343066,0.8525345622119815,0.06711409395973154,1.0,1.0,1.0,1.0,1.0,0.0,0.5357666015625,0.12158203125,0.110595703125,-0.013641357421875,-0.007965087890625,0.001861572265625,A,1,2026-08-22_23-06-48,2026-08-22
0.9981818181818182,0.8724489795918368,1.0,0.783410138248848,0.21476510067114093,1.0,1.0,1.0,1.0,1.0,0.0,0.536376953125,0.123779296875,0.1142578125,-0.01116943359375,-0.00860595703125,0.0068359375,A,1,2026-08-22_23-06-48,2026-08-22
1.0,0.8010204081632653,0.8686131386861314,0.8847926267281107,0.0,1.0,1.0,1.0,1.0,1.0,0.0,0.534423828125,0.1173095703125,0.1129150390625,-0.004791259765625,-0.00860595703125,0.0126953125,A,1,2026-08-22_23-06-48,2026-08-22
1.0,0.9064625850340136,0.9379562043795621,0.8064516129032258,0.06711409395973154,1.0,1.0,1.0,1.0,1.0,0.0,0.536376953125,0.1085205078125,0.107177734375,-0.00408935546875,-0.006317138671875,0.00885009765625,A,1,2026-08-22_23-06-48,2026-08-22
1.0,0.8486394557823129,0.9890510948905109,0.8847926267281107,0.1342281879194631,1.0,1.0,1.0,1.0,1.0,0.0,0.5396728515625,0.108154296875,0.1097412109375,-0.0064697265625,-0.005706787109375,0.004486083984375,A,1,2026-08-22_23-06-48,2026-08-22
0.9709090909090909,0.8554421768707483,0.9452554744525548,0.8571428571428571,0.06711409395973154,1.0,1.0,1.0,1.0,1.0,0.0,0.53955078125,0.1094970703125,0.1136474609375,-0.014923095703125,-0.007537841796875,0.001434326171875,A,1,2026-08-22_23-06-48,2026-08-22
1.0,0.8894557823129252,0.8321167883211679,0.7603686635944701,0.2684563758389262,1.0,1.0,1.0,1.0,1.0,0.0,0.5360107421875,0.111572265625,0.11376953125,-0.01544189453125,-0.008453369140625,0.00262451171875,A,1,2026-08-22_23-06-48,2026-08-22
1.0,0.826530612244898,1.0,0.7972350230414746,0.20134228187919462,1.0,1.0,1.0,1.0,1.0,0.0,0.530029296875,0.1043701171875,0.15283203125,0.000579833984375,-0.013885498046875,0.001708984375,A,2,2026-08-22_23-06-48,2026-08-22
1.0,0.9540816326530612,0.8065693430656934,1.0,0.8053691275167785,1.0,1.0,1.0,1.0,1.0,0.0,0.5274658203125,0.1070556640625,0.1524658203125,-0.00775146484375,-0.014617919921875,-0.00128173828125,A,2,2026-08-22_23-06-48,2026-08-22
1.0,0.8809523809523809,1.0,0.6589861751152074,0.1476510067114094,1.0,1.0,1.0,1.0,1.0,0.0,0.5299072265625,0.110107421875,0.1556396484375,-0.009613037109375,-0.019073486328125,0.00299072265625,A,2,2026-08-22_23-06-48,2026-08-22
1.0,0.79421768707483,1.0,0.8018433179723502,0.0,1.0,1.0,1.0,1.0,1.0,0.0,0.5311279296875,0.111572265625,0.1507568359375,-0.010040283203125,-0.018402099609375,0.004364013671875,A,2,2026-08-22_23-06-48,2026-08-22
0.9272727272727272,0.9778911564625851,0.8759124087591241,0.9032258064516129,0.8053691275167785,1.0,1.0,1.0,1.0,1.0,0.0,0.5257568359375,0.113037109375,0.149169921875,-0.005859375,-0.0142822265625,0.004974365234375,A,2,2026-08-22_23-06-48,2026-08-22
0.9745454545454545,0.9387755102040817,0.7262773722627737,1.0,0.4966442953020134,1.0,1.0,1.0,1.0,1.0,0.0,0.5299072265625,0.1107177734375,0.1488037109375,0.006805419921875,-0.012451171875,0.006378173828125,A,2,2026-08-22_23-06-48,2026-08-22
0.9236363636363636,0.8758503401360545,0.8321167883211679,0.9585253456221198,0.22818791946308725,1.0,1.0,1.0,1.0,1.0,0.0,0.5291748046875,0.106689453125,0.145751953125,-0.002044677734375,-0.010711669921875,0.00115966796875,A,2,2026-08-22_23-06-48,2026-08-22
1.0,0.8095238095238095,0.9963503649635036,1.0,0.37583892617449666,1.0,1.0,1.0,1.0,1.0,0.0,0.5264892578125,0.1182861328125,0.1434326171875,-0.002685546875,-0.00714111328125,0.003326416015625,A,2,2026-08-22_23-06-48,2026-08-22
0.8854545454545455,0.8894557823129252,0.7664233576642335,0.9400921658986175,0.348993288590604,1.0,1.0,1.0,1.0,1.0,0.0,0.5286865234375,0.1021728515625,0.1427001953125,-0.0037841796875,-0.00518798828125,0.00244140625,A,2,2026-08-22_23-06-48,2026-08-22
1.0,0.8316326530612245,1.0,1.0,0.10738255033557047,1.0,1.0,1.0,1.0,1.0,0.0,0.5323486328125,0.11083984375,0.1497802734375,-0.016265869140625,-0.00482177734375,-0.003173828125,A,2,2026-08-22_23-06-48,2026-08-22
1.0,0.8282312925170068,1.0,0.8294930875576036,0.2953020134228188,1.0,1.0,1.0,1.0,1.0,0.0,0.5330810546875,0.1148681640625,0.149658203125,-0.01080322265625,-0.007720947265625,-0.001495361328125,A,2,2026-08-22_23-06-48,2026-08-22
1.0,0.9404761904761905,0.7481751824817519,1.0,0.3221476510067114,1.0,1.0,1.0,1.0,1.0,0.0,0.5302734375,0.113037109375,0.1402587890625,-0.010284423828125,-0.00836181640625,-0.002227783203125,A,2,2026-08-22_23-06-48,2026-08-22
1.0,0.8350340136054422,1.0,0.9308755760368663,0.8053691275167785,1.0,1.0,1.0,1.0,1.0,0.0,0.530029296875,0.1170654296875,0.14404296875,-0.00384521484375,-0.00567626953125,-0.001739501953125,A,2,2026-08-22_23-06-48,2026-08-22
1.0,0.8503401360544217,1.0,0.8202764976958525,0.0,1.0,1.0,1.0,1.0,1.0,0.0,0.53662109375,0.118896484375,0.1461181640625,-0.002716064453125,-0.00341796875,-0.001251220703125,A,2,2026-08-22_23-06-48,2026-08-22
0.9127272727272727,0.9608843537414966,0.8722627737226277,1.0,0.18791946308724833,1.0,1.0,1.0,1.0,1.0,0.0,0.5294189453125,0.114501953125,0.149169921875,-0.0072021484375,-0.001556396484375,-0.003570556640625,A,2,2026-08-22_23-06-48,2026-08-22
1.0,0.8469387755102041,1.0,0.9447004608294931,0.1610738255033557,1.0,1.0,1.0,1.0,1.0,0.0,0.531982421875,0.115966796875,0.1484375,0.001251220703125,-0.001678466796875,0.002227783203125,A,2,2026-08-22_23-06-48,2026-08-22
1.0,0.8418367346938775,1.0,0.8341013824884793,0.0,1.0,1.0,1.0,1.0,1.0,0.0,0.52685546875,0.10986328125,0.144287109375,-0.010589599609375,-0.00164794921875,-0.0040283203125,A,2,2026-08-22_23-06-48,2026-08-22
1.0,0.8809523809523809,0.8138686131386861,1.0,0.28187919463087246,1.0,1.0,1.0,1.0,1.0,0.0,0.5244140625,0.120361328125,0.15185546875,-0.010223388671875,0.000885009765625,-0.003143310546875,A,2,2026-08-22_23-06-48,2026-08-22
1.0,0.9285714285714286,0.781021897810219,1.0,0.38926174496644295,1.0,1.0,1.0,1.0,1.0,0.0,0.527587890625,0.1214599609375,0.15869140625,-0.002716064453125,0.001312255859375,0.001983642578125,A,2,2026-08-22_23-06-48,2026-08-22
1.0,0.8758503401360545,0.8722627737226277,0.9447004608294931,0.1342281879194631,1.0,1.0,1.0,1.0,1.0,0.0,0.5321044921875,0.1195068359375,0.1593017578125,-0.001251220703125,-0.00115966796875,0.000335693359375,A,2,2026-08-22_23-06-48,2026-08-22
1.0,0.8894557823129252,0.9854014598540146,0.8525345622119815,0.06711409395973154,1.0,1.0,1.0,1.0,1.0,0.0,0.5269775390625,0.1175537109375,0.1563720703125,-0.007598876953125,-0.001800537109375,0.00238037109375,A,2,2026-08-22_23-06-48,2026-08-22
1.0,0.7976190476190477,0.9854014598540146,0.8341013824884793,0.1476510067114094,1.0,1.0,1.0,1.0,1.0,0.0,0.5257568359375,0.11474609375,0.154541015625,-0.004730224609375,-0.005035400390625,0.004638671875,A,2,2026-08-22_23-06-48,2026-08-22
1.0,0.8843537414965986,1.0,0.8387096774193549,0.33557046979865773,1.0,1.0,1.0,1.0,1.0,0.0,0.5238037109375,0.107666015625,0.15185546875,-0.01287841796875,-0.00701904296875,0.0009765625,A,2,2026-08-22_23-06-48,2026-08-22
1.0,0.9421768707482994,1.0,1.0,0.08053691275167785,1.0,1.0,1.0,1.0,1.0,0.0,0.521484375,0.118408203125,0.1583251953125,-0.015380859375,-0.00506591796875,0.001220703125,A,2,2026-08-22_23-06-48,2026-08-22
0.9363636363636364,0.8282312925170068,0.6751824817518248,1.0,0.8053691275167785,1.0,1.0,1.0,1.0,1.0,0.0,0.5205078125,0.1082763671875,0.1475830078125,-0.00799560546875,-0.00726318359375,0.0020751953125,A,2,2026-08-22_23-06-48,2026-08-22
0.94,0.7840136054421769,1.0,0.7972350230414746,0.2953020134228188,1.0,1.0,1.0,1.0,1.0,0.0,0.518798828125,0.1114501953125,0.1505126953125,-0.010467529296875,-0.001983642578125,-0.005401611328125,A,2,2026-08-22_23-06-48,2026-08-22
1.0,0.7125850340136054,0.7700729927007299,0.631336405529954,0.0,1.0,1.0,1.0,1.0,1.0,0.0,0.5203857421875,0.13134765625,0.1572265625,0.011993408203125,0.007568359375,-0.009063720703125,A,2,2026-08-22_23-06-48,2026-08-22
1.0,1.0,1.0,0.9815668202764977,0.0,1.0,1.0,1.0,1.0,1.0,0.0,0.5263671875,0.11962890625,0.1513671875,0.024078369140625,-0.001678466796875,0.008758544921875,A,2,2026-08-22_23-06-48,2026-08-22
0.8872727272727273,1.0,1.0,1.0,0.06711409395973154,1.0,1.0,1.0,1.0,1.0,0.0,0.5316162109375,0.107666015625,0.14794921875,0.033721923828125,-0.0048828125,0.0128173828125,A,2,2026-08-22_23-06-48,2026-08-22
0.92,0.9710884353741497,0.9525547445255474,1.0,0.37583892617449666,1.0,1.0,1.0,1.0,1.0,0.0,0.530517578125,0.103515625,0.1549072265625,0.013916015625,0.0013427734375,0.0006103515625,A,2,2026-08-22_23-06-48,2026-08-22
0.9490909090909091,0.8044217687074829,1.0,1.0,0.0,1.0,1.0,1.0,1.0,1.0,0.0,0.5325927734375,0.11474609375,0.1552734375,0.008148193359375,-0.000885009765625,-0.0010986328125,A,2,2026-08-22_23-06-48,2026-08-22
0.8727272727272727,0.9251700680272109,1.0,1.0,0.2684563758389262,1.0,1.0,1.0,1.0,1.0,0.0,0.5404052734375,0.1148681640625,0.15283203125,-0.008697509765625,-0.008453369140625,0.001129150390625,A,2,2026-08-22_23-06-48,2026-08-22
0.94,0.8996598639455783,0.7773722627737226,0.880184331797235,0.1476510067114094,1.0,1.0,1.0,1.0,1.0,0.0,0.53271484375,0.118408203125,0.150146484375,-0.029022216796875,-0.009429931640625,-0.00250244140625,A,2,2026-08-22_23-06-48,2026-08-22
1.0,0.9132653061224489,1.0,0.8064516129032258,0.22818791946308725,1.0,1.0,1.0,1.0,1.0,0.0,0.5296630859375,0.1336669921875,0.149169921875,-0.023406982421875,-0.006622314453125,0.00323486328125,A,2,2026-08-22_23-06-48,2026-08-22
0.9345454545454546,0.8843537414965986,0.9343065693430657,0.9124423963133641,0.22818791946308725,1.0,1.0,1.0,1.0,1.0,0.0,0.5289306640625,0.125244140625,0.146484375,-0.004119873046875,-0.0045166015625,0.007293701171875,A,2,2026-08-22_23-06-48,2026-08-22
1.0,0.8843537414965986,0.8540145985401459,0.8341013824884793,0.22818791946308725,1.0,1.0,1.0,1.0,1.0,0.0,0.5302734375,0.109130859375,0.149169921875,-0.001190185546875,-0.003570556640625,0.00518798828125,A,2,2026-08-22_23-06-48,2026-08-22
1.0,0.8843537414965986,1.0,1.0,0.33557046979865773,1.0,1.0,1.0,1.0,1.0,0.0,0.527587890625,0.1124267578125,0.148193359375,0.004730224609375,-0.005157470703125,0.001861572265625,A,2,2026-08-22_23-06-48,2026-08-22
1.0,0.8792517006802721,0.948905109489051,0.9769585253456221,0.8053691275167785,1.0,1.0,1.0,1.0,1.0,0.0,0.5245361328125,0.116943359375,0.145263671875,0.0,-0.003662109375,0.0003662109375,A,2,2026-08-22_23-06-48,2026-08-22
1.0,0.9421768707482994,0.8941605839416058,1.0,0.21476510067114093,1.0,1.0,1.0,1.0,1.0,0.0,0.5230712890625,0.117431640625,0.1513671875,-0.01068115234375,-0.00531005859375,0.000213623046875,A,2,2026-08-22_23-06-48,2026-08-22
0.94,0.8486394557823129,0.6970802919708029,0.815668202764977,0.8053691275167785,1.0,1.0,1.0,1.0,1.0,0.0,0.5242919921875,0.1204833984375,0.1568603515625,-0.01910400390625,-0.007049560546875,0.000518798828125,A,2,2026-08-22_23-06-48,2026-08-22
1.0,0.8639455782312925,0.9598540145985401,0.815668202764977,0.013422818791946308,1.0,1.0,1.0,1.0,1.0,0.0,0.534423828125,0.1109619140625,0.139892578125,-0.004638671875,-0.007415771484375,0.018096923828125,A,3,2026-08-22_23-06-48,2026-08-22
0.9981818181818182,0.8163265306122449,0.8905109489051095,0.9124423963133641,0.348993288590604,1.0,1.0,1.0,1.0,1.0,0.0,0.534423828125,0.095458984375,0.139404296875,-0.002532958984375,-0.01025390625,0.0208740234375,A,3,2026-08-22_23-06-48,2026-08-22
1.0,0.8469387755102041,1.0,0.663594470046083,0.48322147651006714,1.0,1.0,1.0,1.0,1.0,0.0,0.5347900390625,0.0748291015625,0.1339111328125,-0.016357421875,-0.0145263671875,0.0054931640625,A,3,2026-08-22_23-06-48,2026-08-22
0.9781818181818182,0.8282312925170068,0.9124087591240876,0.8894009216589862,0.3221476510067114,1.0,1.0,1.0,1.0,1.0,0.0,0.5299072265625,0.0968017578125,0.13916015625,-0.033935546875,-0.012725830078125,-0.006378173828125,A,3,2026-08-22_23-06-48,2026-08-22
1.0,0.9625850340136054,0.9562043795620438,0.9308755760368663,0.1476510067114094,1.0,1.0,1.0,1.0,1.0,0.0,0.5338134765625,0.1016845703125,0.1331787109375,-0.0228271484375,-0.014434814453125,-0.00189208984375,A,3,2026-08-22_23-06-48,2026-08-22
1.0,0.826530612244898,0.9890510948905109,0.9308755760368663,0.06711409395973154,1.0,1.0,1.0,1.0,1.0,0.0,0.534423828125,0.1046142578125,0.12841796875,-0.022613525390625,-0.0174560546875,-0.0008544921875,A,3,2026-08-22_23-06-48,2026-08-22
0.9636363636363636,0.9200680272108843,1.0,0.9815668202764977,0.5234899328859061,1.0,1.0,1.0,1.0,1.0,0.0,0.5400390625,0.108642578125,0.1265869140625,-0.01373291015625,-0.015594482421875,-0.000396728515625,A,3,2026-08-22_23-06-48,2026-08-22
0.9363636363636364,0.8537414965986394,1.0,0.8894009216589862,0.10738255033557047,1.0,1.0,1.0,1.0,1.0,0.0,0.539794921875,0.112060546875,0.1263427734375,-0.011444091796875,-0.010284423828125,6.103515625e-05,A,3,2026-08-22_23-06-48,2026-08-22
0.9381818181818182,0.9064625850340136,0.7992700729927007,1.0,0.4161073825503356,1.0,1.0,1.0,1.0,1.0,0.0,0.53857421875,0.114990234375,0.1239013671875,-0.009307861328125,-0.0074462890625,0.003326416015625,A,3,2026-08-22_23-06-48,2026-08-22
0.9381818181818182,0.8690476190476191,0.8759124087591241,1.0,0.053691275167785234,1.0,1.0,1.0,1.0,1.0,0.0,0.54248046875,0.1092529296875,0.1221923828125,-0.0089111328125,-0.00384521484375,0.008331298828125,A,3,2026-08-22_23-06-48,2026-08-22
0.9218181818181819,0.858843537414966,0.9124087591240876,0.8847926267281107,0.08053691275167785,1.0,1.0,1.0,1.0,1.0,0.0,0.540771484375,0.102783203125,0.1280517578125,-0.00701904296875,-0.00347900390625,0.007080078125,A,3,2026-08-22_23-06-48,2026-08-22
1.0,0.7653061224489796,1.0,0.6359447004608295,0.1342281879194631,1.0,1.0,1.0,1.0,1.0,0.0,0.5430908203125,0.0972900390625,0.127197265625,-0.01031494140625,-0.00537109375,0.0006103515625,A,3,2026-08-22_23-06-48,2026-08-22
1.0,0.8537414965986394,0.9854014598540146,0.7557603686635944,0.8053691275167785,1.0,1.0,1.0,1.0,1.0,0.0,0.5384521484375,0.102294921875,0.127197265625,-0.016845703125,-0.005096435546875,-0.002838134765625,A,3,2026-08-22_23-06-48,2026-08-22
1.0,0.8027210884353742,1.0,0.9170506912442397,0.0,1.0,1.0,1.0,1.0,1.0,0.0,0.5421142578125,0.1064453125,0.1312255859375,-0.015838623046875,-0.00799560546875,-0.00152587890625,A,3,2026-08-22_23-06-48,2026-08-22
1.0,0.8180272108843537,1.0,0.7373271889400922,0.24161073825503357,1.0,1.0,1.0,1.0,1.0,0.0,0.5364990234375,0.101318359375,0.126220703125,-0.017059326171875,-0.0091552734375,-0.002655029296875,A,3,2026-08-22_23-06-48,2026-08-22
0.94,0.9387755102040817,0.7591240875912408,0.9124423963133641,0.22818791946308725,1.0,1.0,1.0,1.0,1.0,0.0,0.5411376953125,0.108154296875,0.123291015625,-0.022064208984375,-0.00762939453125,-0.008331298828125,A,3,2026-08-22_23-06-48,2026-08-22
0.9981818181818182,0.7721088435374149,0.948905109489051,0.9262672811059908,0.12080536912751678,1.0,1.0,1.0,1.0,1.0,0.0,0.536376953125,0.109375,0.120361328125,-0.01983642578125,-0.00396728515625,-0.00811767578125,A,3,2026-08-22_23-06-48,2026-08-22
0.9054545454545454,0.8520408163265306,1.0,0.7603686635944701,0.013422818791946308,1.0,1.0,1.0,1.0,1.0,0.0,0.5374755859375,0.1138916015625,0.1273193359375,-0.021759033203125,0.002197265625,-0.00616455078125,A,3,2026-08-22_23-06-48,2026-08-22
1.0,0.8537414965986394,0.9781021897810219,0.7373271889400922,0.33557046979865773,1.0,1.0,1.0,1.0,1.0,0.0,0.5318603515625,0.11572265625,0.1304931640625,-0.018585205078125,0.0072021484375,-0.004119873046875,A,3,2026-08-22_23-06-48,2026-08-22
1.0,0.8316326530612245,0.9817518248175182,0.7096774193548387,0.3624161073825503,1.0,1.0,1.0,1.0,1.0,0.0,0.5316162109375,0.114990234375,0.13623046875,-0.0147705078125,0.011016845703125,-0.001617431640625,A,3,2026-08-22_23-06-48,2026-08-22
0.9745454545454545,0.826530612244898,0.8722627737226277,1.0,0.1610738255033557,1.0,1.0,1.0,1.0,1.0,0.0,0.533447265625,0.110107421875,0.137451171875,-0.011138916015625,0.011566162109375,-0.003631591796875,A,3,2026-08-22_23-06-48,2026-08-22
1.0,0.8452380952380952,1.0,0.7050691244239631,0.21476510067114093,1.0,1.0,1.0,1.0,1.0,0.0,0.5325927734375,0.11572265625,0.1507568359375,-0.01409912109375,0.005218505859375,-0.00543212890625,A,3,2026-08-22_23-06-48,2026-08-22
0.9672727272727273,0.8775510204081632,0.7591240875912408,1.0,0.37583892617449666,1.0,1.0,1.0,1.0,1.0,0.0,0.525634765625,0.1123046875,0.14794921875,-0.005706787109375,-0.007659912109375,0.0006103515625,A,3,2026-08-22_23-06-48,2026-08-22
0.9290909090909091,0.9404761904761905,0.7664233576642335,1.0,0.053691275167785234,1.0,1.0,1.0,1.0,1.0,0.0,0.5264892578125,0.100830078125,0.1390380859375,-0.0089111328125,-0.012847900390625,-0.00115966796875,A,3,2026-08-22_23-06-48,2026-08-22
0.96,0.9336734693877551,0.8138686131386861,0.9447004608294931,0.5369127516778524,1.0,1.0,1.0,1.0,1.0,0.0,0.52392578125,0.099365234375,0.132568359375,-0.02044677734375,-0.01348876953125,-0.00933837890625,A,3,2026-08-22_23-06-48,2026-08-22
0.9472727272727273,0.9115646258503401,0.7956204379562044,0.8894009216589862,0.0,1.0,1.0,1.0,1.0,1.0,0.0,0.5223388671875,0.1075439453125,0.1328125,-0.0262451171875,-0.0106201171875,-0.01397705078125,A,3,2026-08-22_23-06-48,2026-08-22
1.0,0.814625850340136,1.0,0.663594470046083,0.24161073825503357,1.0,1.0,1.0,1.0,1.0,0.0,0.533203125,0.11572265625,0.130615234375,-0.0216064453125,-0.0130615234375,-0.0052490234375,A,3,2026-08-22_23-06-48,2026-08-22
0.9745454545454545,0.8350340136054422,0.9671532846715328,0.6682027649769585,0.0,1.0,1.0,1.0,1.0,1.0,0.0,0.532470703125,0.1163330078125,0.1285400390625,-0.026947021484375,-0.011016845703125,-0.000732421875,A,3,2026-08-22_23-06-48,2026-08-22
1.0,0.8537414965986394,0.8905109489051095,0.8341013824884793,0.8053691275167785,1.0,1.0,1.0,1.0,1.0,0.0,0.5361328125,0.114501953125,0.133056640625,-0.02362060546875,-0.00933837890625,0.00140380859375,A,3,2026-08-22_23-06-48,2026-08-22
0.9236363636363636,0.9081632653061225,0.781021897810219,1.0,0.40268456375838924,1.0,1.0,1.0,1.0,1.0,0.0,0.532958984375,0.1190185546875,0.1368408203125,-0.013824462890625,-0.010589599609375,0.004180908203125,A,3,2026-08-22_23-06-48,2026-08-22
0.9981818181818182,0.826530612244898,0.9416058394160584,0.8341013824884793,0.12080536912751678,1.0,1.0,1.0,1.0,1.0,0.0,0.5367431640625,0.1016845703125,0.1361083984375,-0.01605224609375,-0.013458251953125,-0.00067138671875,A,3,2026-08-22_23-06-48,2026-08-22
1.0,0.8214285714285714,1.0,0.7373271889400922,0.040268456375838924,1.0,1.0,1.0,1.0,1.0,0.0,0.536865234375,0.109130859375,0.1385498046875,-0.03125,-0.0167236328125,-0.0057373046875,A,3,2026-08-22_23-06-48,2026-08-22
0.9381818181818182,0.8537414965986394,0.6678832116788321,1.0,0.8053691275167785,1.0,1.0,1.0,1.0,1.0,0.0,0.5361328125,0.11328125,0.1361083984375,-0.029083251953125,-0.021942138671875,-0.003875732421875,A,3,2026-08-22_23-06-48,2026-08-22
0.9963636363636363,0.8520408163265306,1.0,0.7788018433179723,0.0,1.0,1.0,1.0,1.0,1.0,0.0,0.536376953125,0.11181640625,0.1265869140625,-0.031402587890625,-0.022216796875,-0.003448486328125,A,3,2026-08-22_23-06-48,2026-08-22
1.0,0.8418367346938775,0.8613138686131386,0.8018433179723502,0.8053691275167785,1.0,1.0,1.0,1.0,1.0,0.0,0.534423828125,0.1156005859375,0.125732421875,-0.0263671875,-0.02117919921875,-0.001983642578125,A,3,2026-08-22_23-06-48,2026-08-22
1.0,0.8197278911564626,0.9124087591240876,0.9861751152073732,0.8053691275167785,1.0,1.0,1.0,1.0,1.0,0.0,0.531494140625,0.1051025390625,0.126220703125,-0.02618408203125,-0.019500732421875,-0.00677490234375,A,3,2026-08-22_23-06-48,2026-08-22
0.9581818181818181,0.8435374149659864,0.9927007299270073,0.967741935483871,0.09395973154362416,1.0,1.0,1.0,1.0,1.0,0.0,0.53369140625,0.11328125,0.1314697265625,-0.025909423828125,-0.01910400390625,-0.010894775390625,A,3,2026-08-22_23-06-48,2026-08-22
0.9963636363636363,0.9098639455782312,0.6423357664233577,1.0,0.8053691275167785,1.0,1.0,1.0,1.0,1.0,0.0,0.5296630859375,0.10888671875,0.130126953125,-0.027496337890625,-0.0223388671875,-0.010650634765625,A,3,2026-08-22_23-06-48,2026-08-22
1.0,0.7908163265306123,1.0,0.8294930875576036,0.1342281879194631,1.0,1.0,1.0,1.0,1.0,0.0,0.5340576171875,0.1082763671875,0.1307373046875,-0.034454345703125,-0.026153564453125,-0.01361083984375,A,3,2026-08-22_23-06-48,2026-08-22
0.9418181818181818,0.9081632653061225,0.7481751824817519,0.9815668202764977,0.48322147651006714,1.0,1.0,1.0,1.0,1.0,0.0,0.5302734375,0.1065673828125,0.125732421875,-0.0406494140625,-0.03228759765625,-0.0224609375,A,3,2026-08-22_23-06-48,2026-08-22
0.9781818181818182,0.8282312925170068,0.9343065693430657,0.880184331797235,0.0,1.0,1.0,1.0,1.0,1.0,0.0,0.5084228515625,0.126953125,0.2218017578125,-0.01177978515625,0.1053466796875,-0.028045654296875,A,4,2026-08-22_23-06-48,2026-08-22
0.9109090909090909,0.8214285714285714,1.0,0.8940092165898618,0.08053691275167785,1.0,1.0,1.0,1.0,1.0,0.0,0.5184326171875,0.124267578125,0.2467041015625,-0.003875732421875,0.084869384765625,-0.032318115234375,A,4,2026-08-22_23-06-48,2026-08-22
1.0,0.8537414965986394,0.9671532846715328,0.7373271889400922,0.1610738255033557,1.0,1.0,1.0,1.0,1.0,0.0,0.5120849609375,0.1357421875,0.2557373046875,-0.024932861328125,0.0487060546875,-0.037353515625,A,4,2026-08-22_23-06-48,2026-08-22
1.0,0.8962585034013606,0.9562043795620438,0.9354838709677419,0.06711409395973154,1.0,1.0,1.0,1.0,1.0,0.0,0.4989013671875,0.1646728515625,0.251708984375,-0.046173095703125,0.023956298828125,-0.032073974609375,A,4,2026-08-22_23-06-48,2026-08-22
0.9109090909090909,0.8707482993197279,0.9416058394160584,0.8294930875576036,0.21476510067114093,1.0,1.0,1.0,1.0,1.0,0.0,0.4913330078125,0.18115234375,0.257080078125,-0.02423095703125,0.006805419921875,-0.00384521484375,A,4,2026-08-22_23-06-48,2026-08-22
1.0,0.8027210884353742,0.8832116788321168,0.7649769585253456,0.0,1.0,1.0,1.0,1.0,1.0,0.0,0.494140625,0.155029296875,0.2474365234375,-0.003173828125,-0.01318359375,0.017333984375,A,4,2026-08-22_23-06-48,2026-08-22
1.0,0.8843537414965986,0.9379562043795621,0.8064516129032258,0.174496644295302,1.0,1.0,1.0,1.0,1.0,0.0,0.4964599609375,0.1405029296875,0.227294921875,-0.004302978515625,-0.029541015625,0.020904541015625,A,4,2026-08-22_23-06-48,2026-08-22
1.0,0.79421768707483,0.8211678832116789,0.967741935483871,0.0,1.0,1.0,1.0,1.0,1.0,0.0,0.490966796875,0.12451171875,0.201416015625,-0.019683837890625,-0.038665771484375,0.022552490234375,A,4,2026-08-22_23-06-48,2026-08-22
1.0,0.79421768707483,0.8795620437956204,1.0,0.0,1.0,1.0,1.0,1.0,1.0,0.0,0.4876708984375,0.125,0.195068359375,-0.0096435546875,-0.041259765625,0.029296875,A,4,2026-08-22_23-06-48,2026-08-22
1.0,0.8503401360544217,1.0,0.7096774193548387,0.40268456375838924,1.0,1.0,1.0,1.0,1.0,0.0,0.4949951171875,0.10791015625,0.185302734375,0.0008544921875,-0.032257080078125,0.025726318359375,A,4,2026-08-22_23-06-48,2026-08-22
0.9945454545454545,0.8843537414965986,0.8832116788321168,0.7373271889400922,0.2953020134228188,1.0,1.0,1.0,1.0,1.0,0.0,0.5069580078125,0.0909423828125,0.182373046875,0.000335693359375,-0.0355224609375,0.015960693359375,A,4,2026-08-22_23-06-48,2026-08-22
0.8818181818181818,0.8401360544217688,0.9890510948905109,0.7327188940092166,0.2684563758389262,1.0,1.0,1.0,1.0,1.0,0.0,0.5125732421875,0.0897216796875,0.17041015625,-0.009613037109375,-0.04058837890625,0.007049560546875,A,4,2026-08-22_23-06-48,2026-08-22
0.8818181818181818,0.8112244897959183,0.8467153284671532,0.7788018433179723,0.12080536912751678,1.0,1.0,1.0,1.0,1.0,0.0,0.5108642578125,0.0928955078125,0.16748046875,-0.01275634765625,-0.044464111328125,0.002685546875,A,4,2026-08-22_23-06-48,2026-08-22
0.94,0.7602040816326531,0.8759124087591241,0.6221198156682027,0.1476510067114094,1.0,1.0,1.0,1.0,1.0,0.0,0.51611328125,0.1043701171875,0.164306640625,-0.013153076171875,-0.036651611328125,-0.00567626953125,A,4,2026-08-22_23-06-48,2026-08-22
1.0,0.8418367346938775,0.9197080291970803,0.7972350230414746,0.0,1.0,1.0,1.0,1.0,1.0,0.0,0.52294921875,0.1119384765625,0.154541015625,-0.009979248046875,-0.025848388671875,-0.009552001953125,A,4,2026-08-22_23-06-48,2026-08-22
1.0,0.8350340136054422,0.9963503649635036,1.0,0.24161073825503357,1.0,1.0,1.0,1.0,1.0,0.0,0.522216796875,0.123779296875,0.143310546875,-0.013885498046875,-0.01190185546875,-0.006500244140625,A,4,2026-08-22_23-06-48,2026-08-22
1.0,0.8537414965986394,1.0,0.815668202764977,0.0,1.0,1.0,1.0,1.0,1.0,0.0,0.52978515625,0.1278076171875,0.1490478515625,-0.00091552734375,0.001556396484375,-0.002899169921875,A,4,2026-08-22_23-06-48,2026-08-22
1.0,0.9081632653061225,1.0,0.9078341013824884,0.8053691275167785,1.0,1.0,1.0,1.0,1.0,0.0,0.5341796875,0.129150390625,0.1578369140625,-0.00286865234375,0.014984130859375,-0.000335693359375,A,4,2026-08-22_23-06-48,2026-08-22
0.9054545454545454,0.8061224489795918,0.6970802919708029,0.8248847926267281,0.12080536912751678,1.0,1.0,1.0,1.0,1.0,0.0,0.537353515625,0.12451171875,0.168701171875,0.003204345703125,0.016448974609375,0.0064697265625,A,4,2026-08-22_23-06-48,2026-08-22
1.0,0.9319727891156463,1.0,0.9953917050691244,0.24161073825503357,1.0,1.0,1.0,1.0,1.0,0.0,0.533447265625,0.1151123046875,0.1737060546875,-0.002410888671875,0.014739990234375,0.00531005859375,A,4,2026-08-22_23-06-48,2026-08-22
0.9018181818181819,0.8571428571428571,0.8175182481751825,0.8847926267281107,0.24161073825503357,1.0,1.0,1.0,1.0,1.0,0.0,0.525390625,0.117431640625,0.186279296875,-0.0103759765625,0.016143798828125,0.00140380859375,A,4,2026-08-22_23-06-48,2026-08-22
0.9090909090909091,0.8180272108843537,0.9087591240875912,0.967741935483871,0.21476510067114093,1.0,1.0,1.0,1.0,1.0,0.0,0.5201416015625,0.126953125,0.19873046875,-0.00762939453125,0.0140380859375,0.002716064453125,A,4,2026-08-22_23-06-48,2026-08-22
0.990909090909091,0.9268707482993197,0.9963503649635036,1.0,0.174496644295302,1.0,1.0,1.0,1.0,1.0,0.0,0.520751953125,0.12060546875,0.207763671875,0.0003662109375,0.0028076171875,0.003448486328125,A,4,2026-08-22_23-06-48,2026-08-22
0.9763636363636363,0.7482993197278912,0.9233576642335767,0.8525345622119815,0.0,1.0,1.0,1.0,1.0,1.0,0.0,0.51220703125,0.11572265625,0.2093505859375,-3.0517578125e-05,-0.01007080078125,-0.0008544921875,A,4,2026-08-22_23-06-48,2026-08-22
1.0,0.9047619047619048,0.9854014598540146,0.9907834101382489,0.013422818791946308,1.0,1.0,1.0,1.0,1.0,0.0,0.5064697265625,0.1253662109375,0.2012939453125,0.003143310546875,-0.017486572265625,-0.0054931640625,A,4,2026-08-22_23-06-48,2026-08-22
1.0,0.8724489795918368,0.9197080291970803,0.9539170506912442,0.1342281879194631,1.0,1.0,1.0,1.0,1.0,0.0,0.50244140625,0.12841796875,0.1910400390625,0.018096923828125,-0.02105712890625,-3.0517578125e-05,A,4,2026-08-22_23-06-48,2026-08-22
1.0,0.9081632653061225,0.9781021897810219,0.6682027649769585,0.24161073825503357,1.0,1.0,1.0,1.0,1.0,0.0,0.500244140625,0.119873046875,0.1796875,0.011993408203125,-0.02099609375,-0.002288818359375,A,4,2026-08-22_23-06-48,2026-08-22
0.9672727272727273,0.9268707482993197,1.0,1.0,0.1476510067114094,1.0,1.0,1.0,1.0,1.0,0.0,0.510009765625,0.13427734375,0.1734619140625,0.014404296875,-0.017791748046875,0.00555419921875,A,4,2026-08-22_23-06-48,2026-08-22
0.9927272727272727,0.9115646258503401,0.8941605839416058,1.0,0.33557046979865773,1.0,1.0,1.0,1.0,1.0,0.0,0.5101318359375,0.128662109375,0.1688232421875,0.00177001953125,-0.014312744140625,0.00750732421875,A,4,2026-08-22_23-06-48,2026-08-22
1.0,0.8809523809523809,1.0,1.0,0.4697986577181208,1.0,1.0,1.0,1.0,1.0,0.0,0.5120849609375,0.1331787109375,0.175048828125,-0.00885009765625,-0.011474609375,0.010711669921875,A,4,2026-08-22_23-06-48,2026-08-22
0.9109090909090909,0.9166666666666666,0.8686131386861314,1.0,0.0,1.0,1.0,1.0,1.0,1.0,0.0,0.51416015625,0.1337890625,0.1776123046875,-0.00689697265625,-0.006439208984375,0.0164794921875,A,4,2026-08-22_23-06-48,2026-08-22
0.9581818181818181,0.8775510204081632,1.0,0.9585253456221198,0.2684563758389262,1.0,1.0,1.0,1.0,1.0,0.0,0.5113525390625,0.11865234375,0.184326171875,-0.005126953125,-0.005645751953125,0.01593017578125,A,4,2026-08-22_23-06-48,2026-08-22
0.9981818181818182,0.8112244897959183,0.9087591240875912,0.9262672811059908,0.1342281879194631,1.0,1.0,1.0,1.0,1.0,0.0,0.5157470703125,0.1217041015625,0.1876220703125,0.00042724609375,-0.0089111328125,0.015838623046875,A,4,2026-08-22_23-06-48,2026-08-22
0.9527272727272728,0.9149659863945578,0.8321167883211679,0.7557603686635944,0.1476510067114094,1.0,1.0,1.0,1.0,1.0,0.0,0.518310546875,0.118408203125,0.18701171875,0.00830078125,-0.01507568359375,0.01873779296875,A,4,2026-08-22_23-06-48,2026-08-22
0.9090909090909091,0.8622448979591837,0.8722627737226277,1.0,0.2684563758389262,1.0,1.0,1.0,1.0,1.0,0.0,0.518798828125,0.1134033203125,0.179931640625,0.01385498046875,-0.02349853515625,0.018829345703125,A,4,2026-08-22_23-06-48,2026-08-22
0.9581818181818181,0.8775510204081632,1.0,0.967741935483871,0.18791946308724833,1.0,1.0,1.0,1.0,1.0,0.0,0.518798828125,0.106201171875,0.177978515625,-0.003326416015625,-0.020477294921875,0.004608154296875,A,4,2026-08-22_23-06-48,2026-08-22
1.0,0.7721088435374149,0.8394160583941606,1.0,0.4966442953020134,1.0,1.0,1.0,1.0,1.0,0.0,0.518310546875,0.123779296875,0.1749267578125,-0.014923095703125,-0.011810302734375,0.000946044921875,A,4,2026-08-22_23-06-48,2026-08-22
0.98,0.8299319727891157,0.9927007299270073,0.7788018433179723,0.2684563758389262,1.0,1.0,1.0,1.0,1.0,0.0,0.5198974609375,0.1197509765625,0.1795654296875,-0.011627197265625,-0.01190185546875,0.005401611328125,A,4,2026-08-22_23-06-48,2026-08-22
0.9981818181818182,0.8707482993197279,1.0,0.8294930875576036,0.0,1.0,1.0,1.0,1.0,1.0,0.0,0.5252685546875,0.1240234375,0.180908203125,-0.01702880859375,-0.01611328125,0.006500244140625,A,4,2026-08-22_23-06-48,2026-08-22
1.0,0.7670068027210885,1.0,0.6866359447004609,0.0,1.0,1.0,1.0,1.0,1.0,0.0,0.5189208984375,0.1270751953125,0.1761474609375,-0.000823974609375,-0.0194091796875,0.00830078125,A,4,2026-08-22_23-06-48,2026-08-22
0.8781818181818182,0.9336734693877551,0.8540145985401459,0.7096774193548387,0.348993288590604,0.0,1.0,1.0,1.0,1.0,0.0,0.5631103515625,-0.00390625,0.024658203125,-0.02239990234375,-0.00567626953125,0.0128173828125,C,0,2026-08-22_23-06-48,2026-08-22
0.9090909090909091,0.9778911564625851,0.8175182481751825,0.6820276497695853,0.40268456375838924,0.0,1.0,1.0,1.0,1.0,0.0,0.560546875,-0.0064697265625,0.025146484375,-0.022186279296875,-0.004638671875,0.009368896484375,C,0,2026-08-22_23-06-48,2026-08-22
0.8654545454545455,0.9268707482993197,0.916058394160584,0.7788018433179723,0.9395973154362416,0.0,1.0,1.0,1.0,1.0,0.0,0.5631103515625,-0.0045166015625,0.0269775390625,-0.006256103515625,-0.00567626953125,0.004241943359375,C,0,2026-08-22_23-06-48,2026-08-22
0.98,0.8197278911564626,1.0,0.8617511520737328,0.8053691275167785,0.0,1.0,1.0,1.0,1.0,0.0,0.5589599609375,-0.0028076171875,0.0283203125,0.0015869140625,-0.0072021484375,0.001312255859375,C,0,2026-08-22_23-06-48,2026-08-22
0.9418181818181818,0.9591836734693877,1.0,0.5898617511520737,1.0,0.0,1.0,1.0,1.0,1.0,0.0,0.5616455078125,-0.004638671875,0.0228271484375,0.001373291015625,-0.01251220703125,0.00079345703125,C,0,2026-08-22_23-06-48,2026-08-22
0.9127272727272727,0.9098639455782312,0.8065693430656934,0.7050691244239631,0.8053691275167785,0.0,1.0,1.0,1.0,1.0,0.0,0.563232421875,-0.003173828125,0.0216064453125,-0.00714111328125,-0.012847900390625,0.0035400390625,C,0,2026-08-22_23-06-48,2026-08-22
0.9381818181818182,0.935374149659864,0.7992700729927007,0.6728110599078341,1.0,0.0,1.0,1.0,1.0,1.0,0.0,0.559814453125,0.002197265625,0.01806640625,-0.006805419921875,-0.00885009765625,0.006744384765625,C,0,2026-08-22_23-06-48,2026-08-22
0.9109090909090909,0.9931972789115646,0.9963503649635036,0.815668202764977,0.8053691275167785,0.0,1.0,1.0,1.0,1.0,0.0,0.556396484375,0.0018310546875,0.0263671875,-0.00146484375,-0.0057373046875,0.0067138671875,C,0,2026-08-22_23-06-48,2026-08-22
0.8145454545454546,0.9727891156462585,0.6861313868613139,0.7050691244239631,0.5100671140939598,0.0,1.0,1.0,1.0,1.0,0.0,0.5670166015625,-0.003662109375,0.0257568359375,-0.002960205078125,-0.009246826171875,0.001678466796875,C,0,2026-08-22_23-06-48,2026-08-22
0.88,0.9183673469387755,0.9671532846715328,0.8847926267281107,0.8053691275167785,0.0,1.0,1.0,1.0,1.0,0.0,0.56298828125,0.000732421875,0.0205078125,-0.00225830078125,-0.01123046875,0.00054931640625,C,0,2026-08-22_23-06-48,2026-08-22
0.9018181818181819,0.9795918367346939,0.9087591240875912,0.8847926267281107,1.0,0.0,1.0,1.0,1.0,1.0,0.0,0.5625,-0.001708984375,0.025634765625,-0.00555419921875,-0.01171875,0.003082275390625,C,0,2026-08-22_23-06-48,2026-08-22
0.9781818181818182,0.8061224489795918,0.9124087591240876,0.7557603686635944,0.8053691275167785,0.0,1.0,1.0,1.0,1.0,0.0,0.5616455078125,-0.0013427734375,0.0225830078125,-0.016265869140625,-0.013458251953125,0.004638671875,C,0,2026-08-22_23-06-48,2026-08-22
0.8418181818181818,0.8707482993197279,0.9197080291970803,0.5069124423963134,0.8053691275167785,0.0,1.0,1.0,1.0,1.0,0.0,0.5606689453125,0.006103515625,0.016845703125,-0.019317626953125,-0.017669677734375,0.0076904296875,C,0,2026-08-22_23-06-48,2026-08-22
0.9436363636363636,0.9132653061224489,0.9306569343065694,0.42857142857142855,0.18791946308724833,0.0,1.0,1.0,1.0,1.0,0.0,0.5582275390625,0.0010986328125,0.018798828125,-0.012298583984375,-0.0152587890625,0.005523681640625,C,0,2026-08-22_23-06-48,2026-08-22
0.8581818181818182,0.9506802721088435,0.8613138686131386,0.7373271889400922,1.0,0.0,1.0,1.0,1.0,1.0,0.0,0.559326171875,0.000244140625,0.021484375,-0.009124755859375,-0.01123046875,0.00146484375,C,0,2026-08-22_23-06-48,2026-08-22
0.9054545454545454,0.9693877551020408,0.9927007299270073,0.7373271889400922,1.0,0.0,1.0,1.0,1.0,1.0,0.0,0.5628662109375,0.0008544921875,0.01904296875,-0.000579833984375,-0.00994873046875,-0.000396728515625,C,0,2026-08-22_23-06-48,2026-08-22
0.8818181818181818,0.9251700680272109,1.0,0.8986175115207373,0.8322147651006712,0.0,1.0,1.0,1.0,1.0,0.0,0.562255859375,-0.0037841796875,0.02099609375,0.003692626953125,-0.01507568359375,-0.001739501953125,C,0,2026-08-22_23-06-48,2026-08-22
0.9872727272727273,0.9523809523809523,1.0,0.7373271889400922,0.8053691275167785,0.0,1.0,1.0,1.0,1.0,0.0,0.5592041015625,-0.009521484375,0.01318359375,-0.01104736328125,-0.0208740234375,-0.00872802734375,C,0,2026-08-22_23-06-48,2026-08-22
0.9927272727272727,0.9387755102040817,1.0,0.5391705069124424,0.37583892617449666,0.0,1.0,1.0,1.0,1.0,0.0,0.56005859375,-0.0009765625,0.010498046875,-0.012847900390625,-0.0177001953125,-0.009368896484375,C,0,2026-08-22_23-06-48,2026-08-22
0.92,0.9268707482993197,0.9890510948905109,0.5714285714285714,1.0,0.0,1.0,1.0,1.0,1.0,0.0,0.5565185546875,0.003662109375,0.0118408203125,-0.00872802734375,-0.005096435546875,-0.004364013671875,C,0,2026-08-22_23-06-48,2026-08-22
0.94,0.9625850340136054,1.0,0.6082949308755761,0.22818791946308725,0.0,1.0,1.0,1.0,1.0,0.0,0.558837890625,0.0003662109375,0.01318359375,-0.014495849609375,0.00213623046875,0.000335693359375,C,0,2026-08-22_23-06-48,2026-08-22
0.9109090909090909,0.9863945578231292,1.0,0.7880184331797235,0.8053691275167785,0.0,1.0,1.0,1.0,1.0,0.0,0.56494140625,0.007568359375,0.0169677734375,-0.01483154296875,0.0029296875,0.004669189453125,C,0,2026-08-22_23-06-48,2026-08-22
0.8236363636363636,0.9183673469387755,0.8029197080291971,0.5944700460829493,0.8053691275167785,0.0,1.0,1.0,1.0,1.0,0.0,0.5626220703125,0.0068359375,0.0223388671875,-0.009735107421875,0.00091552734375,0.00567626953125,C,0,2026-08-22_23-06-48,2026-08-22
0.8781818181818182,0.891156462585034,0.9452554744525548,0.7373271889400922,0.87248322147651,0.0,1.0,1.0,1.0,1.0,0.0,0.565185546875,0.0018310546875,0.0252685546875,-0.009185791015625,-0.00665283203125,0.004638671875,C,0,2026-08-22_23-06-48,2026-08-22
1.0,0.9727891156462585,1.0,0.663594470046083,0.8187919463087249,0.0,1.0,1.0,1.0,1.0,0.0,0.56005859375,-0.0025634765625,0.02392578125,-0.013092041015625,-0.0115966796875,0.003387451171875,C,0,2026-08-22_23-06-48,2026-08-22
0.9072727272727272,0.9982993197278912,0.9927007299270073,0.7050691244239631,0.8053691275167785,0.0,1.0,1.0,1.0,1.0,0.0,0.5592041015625,0.002685546875,0.024169921875,-0.01470947265625,-0.014892578125,0.005706787109375,C,0,2026-08-22_23-06-48,2026-08-22
0.9163636363636364,0.9608843537414966,1.0,0.7972350230414746,0.8590604026845637,0.0,1.0,1.0,1.0,1.0,0.0,0.5596923828125,-0.0040283203125,0.020751953125,-0.0159912109375,-0.014801025390625,0.008148193359375,C,0,2026-08-22_23-06-48,2026-08-22
0.92,1.0,0.9452554744525548,0.8110599078341014,1.0,0.0,1.0,1.0,1.0,1.0,0.0,0.55908203125,-0.001708984375,0.01708984375,-0.021575927734375,-0.010955810546875,0.0072021484375,C,0,2026-08-22_23-06-48,2026-08-22
0.9690909090909091,0.9438775510204082,0.9927007299270073,0.391705069124424,0.48322147651006714,0.0,1.0,1.0,1.0,1.0,0.0,0.559326171875,-0.005615234375,0.0169677734375,-0.031280517578125,-0.0086669921875,0.0062255859375,C,0,2026-08-22_23-06-48,2026-08-22
0.8836363636363637,0.9183673469387755,0.9087591240875912,0.7880184331797235,0.48322147651006714,0.0,1.0,1.0,1.0,1.0,0.0,0.5633544921875,0.0067138671875,0.013427734375,-0.03204345703125,-0.014190673828125,0.00701904296875,C,0,2026-08-22_23-06-48,2026-08-22
0.9309090909090909,0.891156462585034,0.8503649635036497,0.576036866359447,0.8053691275167785,0.0,1.0,1.0,1.0,1.0,0.0,0.5592041015625,0.00634765625,0.0084228515625,-0.02392578125,-0.017913818359375,0.00750732421875,C,0,2026-08-22_23-06-48,2026-08-22
1.0,1.0,0.8759124087591241,0.6359447004608295,0.8053691275167785,0.0,1.0,1.0,1.0,1.0,0.0,0.552734375,0.0023193359375,0.010986328125,-0.016815185546875,-0.009033203125,0.004486083984375,C,0,2026-08-22_23-06-48,2026-08-22
0.850909090909091,1.0,0.9708029197080292,0.8847926267281107,0.8053691275167785,0.0,1.0,1.0,1.0,1.0,0.0,0.55810546875,-0.0010986328125,0.008544921875,-0.016815185546875,0.004730224609375,-0.001068115234375,C,0,2026-08-22_23-06-48,2026-08-22
0.9145454545454546,0.9948979591836735,1.0,0.6082949308755761,0.9530201342281879,0.0,1.0,1.0,1.0,1.0,0.0,0.5594482421875,0.000244140625,0.0062255859375,-0.01422119140625,0.010833740234375,0.0015869140625,C,0,2026-08-22_23-06-48,2026-08-22
0.9127272727272727,0.9778911564625851,0.7518248175182481,0.6728110599078341,0.9395973154362416,0.0,1.0,1.0,1.0,1.0,0.0,0.5633544921875,-0.0001220703125,0.021240234375,-0.0106201171875,0.011474609375,0.00592041015625,C,0,2026-08-22_23-06-48,2026-08-22
0.9927272727272727,0.9098639455782312,1.0,0.46543778801843316,0.5369127516778524,0.0,1.0,1.0,1.0,1.0,0.0,0.5638427734375,-0.0054931640625,0.0294189453125,-0.015594482421875,0.005096435546875,0.00811767578125,C,0,2026-08-22_23-06-48,2026-08-22
0.9436363636363636,0.9608843537414966,0.9708029197080292,0.8847926267281107,0.38926174496644295,0.0,1.0,1.0,1.0,1.0,0.0,0.56298828125,-0.0064697265625,0.0308837890625,-0.01873779296875,-0.00457763671875,0.00518798828125,C,0,2026-08-22_23-06-48,2026-08-22
1.0,0.891156462585034,1.0,0.6866359447004609,1.0,0.0,1.0,1.0,1.0,1.0,0.0,0.5640869140625,-0.004638671875,0.0269775390625,-0.02557373046875,-0.00811767578125,0.001556396484375,C,0,2026-08-22_23-06-48,2026-08-22
0.8527272727272728,0.9812925170068028,0.8759124087591241,0.8387096774193549,1.0,0.0,1.0,1.0,1.0,1.0,0.0,0.551025390625,0.0064697265625,0.030517578125,-0.020111083984375,-0.005615234375,0.0030517578125,C,0,2026-08-22_23-06-48,2026-08-22
1.0,0.8503401360544217,1.0,0.5483870967741935,0.9261744966442953,0.0,1.0,1.0,1.0,1.0,0.0,0.5604248046875,0.0035400390625,0.027587890625,-0.02203369140625,-0.00604248046875,0.00543212890625,C,0,2026-08-22_23-06-48,2026-08-22
0.9872727272727273,0.9846938775510204,0.9197080291970803,0.7235023041474654,0.42953020134228187,1.0,1.0,1.0,1.0,1.0,0.0,0.544921875,0.0030517578125,-0.1202392578125,-0.012420654296875,-0.01397705078125,0.003936767578125,C,1,2026-08-22_23-06-48,2026-08-22
0.9963636363636363,1.0,0.8467153284671532,0.8064516129032258,1.0,1.0,1.0,1.0,1.0,1.0,0.0,0.544921875,0.0079345703125,-0.1217041015625,-0.016510009765625,-0.000823974609375,0.004150390625,C,1,2026-08-22_23-06-48,2026-08-22
0.8727272727272727,1.0,0.7372262773722628,0.9262672811059908,0.40268456375838924,1.0,1.0,1.0,1.0,1.0,0.0,0.546875,0.0048828125,-0.113525390625,-0.012939453125,0.0074462890625,0.006011962890625,C,1,2026-08-22_23-06-48,2026-08-22
1.0,0.8418367346938775,1.0,0.4423963133640553,0.48322147651006714,1.0,1.0,1.0,1.0,1.0,0.0,0.544677734375,-0.0003662109375,-0.10205078125,-0.009918212890625,0.0052490234375,0.008331298828125,C,1,2026-08-22_23-06-48,2026-08-22
0.9163636363636364,0.8758503401360545,1.0,0.5806451612903226,0.3221476510067114,1.0,1.0,1.0,1.0,1.0,0.0,0.549560546875,-0.0018310546875,-0.093505859375,-0.006500244140625,-0.002777099609375,0.00860595703125,C,1,2026-08-22_23-06-48,2026-08-22
0.8636363636363636,1.0,0.5985401459854015,0.7880184331797235,1.0,1.0,1.0,1.0,1.0,1.0,0.0,0.55029296875,-0.006591796875,-0.09619140625,-0.01287841796875,-0.014129638671875,0.0062255859375,C,1,2026-08-22_23-06-48,2026-08-22
0.9581818181818181,0.9846938775510204,0.7627737226277372,1.0,0.8859060402684564,1.0,1.0,1.0,1.0,1.0,0.0,0.55224609375,-0.001708984375,-0.107177734375,-0.015655517578125,-0.01690673828125,0.006866455078125,C,1,2026-08-22_23-06-48,2026-08-22
1.0,0.8809523809523809,1.0,0.7603686635944701,0.174496644295302,1.0,1.0,1.0,1.0,1.0,0.0,0.5501708984375,-0.000732421875,-0.10888671875,-0.01312255859375,-0.011505126953125,0.00592041015625,C,1,2026-08-22_23-06-48,2026-08-22
0.8472727272727273,1.0,0.6934306569343066,0.9124423963133641,0.18791946308724833,1.0,1.0,1.0,1.0,1.0,0.0,0.5452880859375,0.0032958984375,-0.103759765625,-0.008209228515625,-0.00250244140625,0.007965087890625,C,1,2026-08-22_23-06-48,2026-08-22
0.8418181818181818,1.0,0.8175182481751825,0.9032258064516129,1.0,1.0,1.0,1.0,1.0,1.0,0.0,0.546875,-0.0052490234375,-0.098388671875,-0.005859375,-0.0048828125,0.007568359375,C,1,2026-08-22_23-06-48,2026-08-22
0.8636363636363636,0.9710884353741497,0.8759124087591241,0.9032258064516129,0.18791946308724833,1.0,1.0,1.0,1.0,1.0,0.0,0.5477294921875,-0.0091552734375,-0.095947265625,-0.011260986328125,-0.01904296875,0.005126953125,C,1,2026-08-22_23-06-48,2026-08-22
0.9472727272727273,0.9574829931972789,1.0,0.6451612903225806,0.8053691275167785,1.0,1.0,1.0,1.0,1.0,0.0,0.552001953125,0.0,-0.10595703125,-0.010467529296875,-0.023895263671875,0.0040283203125,C,1,2026-08-22_23-06-48,2026-08-22
0.9490909090909091,0.9251700680272109,0.8759124087591241,0.728110599078341,0.8053691275167785,1.0,1.0,1.0,1.0,1.0,0.0,0.5478515625,-0.001220703125,-0.1187744140625,-0.0106201171875,-0.01861572265625,0.00140380859375,C,1,2026-08-22_23-06-48,2026-08-22
0.9381818181818182,1.0,0.6131386861313869,0.9585253456221198,0.9932885906040269,1.0,1.0,1.0,1.0,1.0,0.0,0.5458984375,0.0057373046875,-0.1224365234375,-0.01214599609375,-0.00933837890625,0.003936767578125,C,1,2026-08-22_23-06-48,2026-08-22
0.9181818181818182,0.9081632653061225,1.0,0.511520737327189,0.48322147651006714,1.0,1.0,1.0,1.0,1.0,0.0,0.5440673828125,-0.000732421875,-0.115966796875,-0.012481689453125,0.001007080078125,0.006866455078125,C,1,2026-08-22_23-06-48,2026-08-22
0.9127272727272727,0.935374149659864,0.9927007299270073,0.6451612903225806,0.8053691275167785,1.0,1.0,1.0,1.0,1.0,0.0,0.55029296875,-0.0068359375,-0.1058349609375,-0.013519287109375,0.001617431640625,0.0074462890625,C,1,2026-08-22_23-06-48,2026-08-22
0.98,0.9319727891156463,1.0,0.880184331797235,0.8590604026845637,1.0,1.0,1.0,1.0,1.0,0.0,0.547119140625,-0.0045166015625,-0.100341796875,-0.0079345703125,-0.005645751953125,0.007110595703125,C,1,2026-08-22_23-06-48,2026-08-22
0.8527272727272728,1.0,0.9598540145985401,0.8894009216589862,1.0,1.0,1.0,1.0,1.0,1.0,0.0,0.5504150390625,-0.007080078125,-0.09912109375,-0.00701904296875,-0.009765625,0.003662109375,C,1,2026-08-22_23-06-48,2026-08-22
1.0,0.8673469387755102,1.0,0.5806451612903226,0.9664429530201343,1.0,1.0,1.0,1.0,1.0,0.0,0.554931640625,-0.003662109375,-0.10693359375,-0.007354736328125,-0.012420654296875,0.001312255859375,C,1,2026-08-22_23-06-48,2026-08-22
0.88,0.9336734693877551,0.9927007299270073,0.5391705069124424,0.2684563758389262,1.0,1.0,1.0,1.0,1.0,0.0,0.5491943359375,0.0009765625,-0.1090087890625,-0.005706787109375,-0.010223388671875,0.002166748046875,C,1,2026-08-22_23-06-48,2026-08-22
0.84,1.0,0.6970802919708029,0.7419354838709677,0.9395973154362416,1.0,1.0,1.0,1.0,1.0,0.0,0.548583984375,0.0,-0.110595703125,-0.00677490234375,-0.00494384765625,0.001861572265625,C,1,2026-08-22_23-06-48,2026-08-22
0.8781818181818182,0.9319727891156463,1.0,0.663594470046083,0.10738255033557047,1.0,1.0,1.0,1.0,1.0,0.0,0.547607421875,0.001953125,-0.1060791015625,-0.010345458984375,-0.00653076171875,0.002532958984375,C,1,2026-08-22_23-06-48,2026-08-22
0.9527272727272728,0.9438775510204082,0.9927007299270073,0.5391705069124424,0.8456375838926175,1.0,1.0,1.0,1.0,1.0,0.0,0.549072265625,0.0040283203125,-0.1044921875,-0.01324462890625,-0.0140380859375,0.0062255859375,C,1,2026-08-22_23-06-48,2026-08-22
0.9963636363636363,0.9132653061224489,0.7591240875912408,0.7373271889400922,0.8322147651006712,1.0,1.0,1.0,1.0,1.0,0.0,0.548095703125,0.0013427734375,-0.108154296875,-0.010345458984375,-0.017181396484375,0.0062255859375,C,1,2026-08-22_23-06-48,2026-08-22
0.8563636363636363,1.0,0.7226277372262774,0.9861751152073732,0.174496644295302,1.0,1.0,1.0,1.0,1.0,0.0,0.5474853515625,0.0035400390625,-0.1090087890625,-0.005462646484375,-0.014984130859375,0.00555419921875,C,1,2026-08-22_23-06-48,2026-08-22
0.9654545454545455,0.9778911564625851,1.0,0.511520737327189,0.1610738255033557,1.0,1.0,1.0,1.0,1.0,0.0,0.5462646484375,-0.0018310546875,-0.1168212890625,-0.006072998046875,-0.007781982421875,0.003936767578125,C,1,2026-08-22_23-06-48,2026-08-22
0.9090909090909091,0.9982993197278912,0.8211678832116789,0.9170506912442397,0.8053691275167785,1.0,1.0,1.0,1.0,1.0,0.0,0.545166015625,-0.0018310546875,-0.1114501953125,-0.005584716796875,0.000213623046875,0.006011962890625,C,1,2026-08-22_23-06-48,2026-08-22
0.9672727272727273,0.9574829931972789,1.0,0.6175115207373272,0.8053691275167785,1.0,1.0,1.0,1.0,1.0,0.0,0.5484619140625,-0.0074462890625,-0.107421875,-0.009185791015625,-0.00018310546875,0.007110595703125,C,1,2026-08-22_23-06-48,2026-08-22
0.9090909090909091,0.8792517006802721,1.0,0.48847926267281105,0.8053691275167785,1.0,1.0,1.0,1.0,1.0,0.0,0.547607421875,-0.005126953125,-0.10205078125,-0.01214599609375,-0.008514404296875,0.007232666015625,C,1,2026-08-22_23-06-48,2026-08-22
1.0,0.8554421768707483,1.0,0.6175115207373272,0.10738255033557047,1.0,1.0,1.0,1.0,1.0,0.0,0.549072265625,-0.004638671875,-0.1014404296875,-0.01116943359375,-0.0130615234375,0.00653076171875,C,1,2026-08-22_23-06-48,2026-08-22
0.8818181818181818,1.0,0.7992700729927007,1.0,0.912751677852349,1.0,1.0,1.0,1.0,1.0,0.0,0.5458984375,-0.00146484375,-0.1103515625,-0.013763427734375,-0.014312744140625,0.00604248046875,C,1,2026-08-22_23-06-48,2026-08-22
0.8818181818181818,0.8707482993197279,0.9598540145985401,0.8755760368663594,0.42953020134228187,1.0,1.0,1.0,1.0,1.0,0.0,0.5496826171875,0.002197265625,-0.1109619140625,-0.012359619140625,-0.01611328125,0.00604248046875,C,1,2026-08-22_23-06-48,2026-08-22
0.8436363636363636,1.0,0.8540145985401459,0.8755760368663594,1.0,1.0,1.0,1.0,1.0,1.0,0.0,0.54931640625,0.000732421875,-0.1153564453125,-0.009490966796875,-0.0137939453125,0.007110595703125,C,1,2026-08-22_23-06-48,2026-08-22
0.6272727272727273,1.0,0.9854014598540146,0.7419354838709677,0.4429530201342282,1.0,1.0,1.0,1.0,1.0,0.0,0.5474853515625,-0.001220703125,-0.1165771484375,-0.0096435546875,-0.006805419921875,0.006256103515625,C,1,2026-08-22_23-06-48,2026-08-22
0.7872727272727272,0.8367346938775511,0.6313868613138686,0.6221198156682027,0.8053691275167785,1.0,1.0,1.0,1.0,1.0,0.0,0.5472412109375,0.002685546875,-0.1102294921875,-0.0084228515625,0.00714111328125,0.0047607421875,C,1,2026-08-22_23-06-48,2026-08-22
0.8727272727272727,0.9829931972789115,0.4781021897810219,0.9539170506912442,1.0,1.0,1.0,1.0,1.0,1.0,0.0,0.543701171875,-0.0001220703125,-0.10791015625,-0.005279541015625,0.013763427734375,0.003997802734375,C,1,2026-08-22_23-06-48,2026-08-22
1.0,1.0,0.9379562043795621,0.9631336405529954,0.37583892617449666,1.0,1.0,1.0,1.0,1.0,0.0,0.548095703125,0.003662109375,-0.099609375,0.00189208984375,0.00384521484375,0.004547119140625,C,1,2026-08-22_23-06-48,2026-08-22
1.0,1.0,1.0,1.0,1.0,1.0,1.0,1.0,1.0,1.0,0.0,0.54931640625,-0.0010986328125,-0.099365234375,0.001312255859375,-0.01287841796875,0.007568359375,C,1,2026-08-22_23-06-48,2026-08-22
1.0,1.0,0.23357664233576642,0.6774193548387096,0.8322147651006712,1.0,1.0,1.0,1.0,1.0,0.0,0.550537109375,-0.011962890625,-0.111083984375,-0.0042724609375,-0.01898193359375,0.009307861328125,C,1,2026-08-22_23-06-48,2026-08-22
0.9509090909090909,0.9030612244897959,0.8759124087591241,0.6728110599078341,0.4429530201342282,1.0,1.0,1.0,1.0,1.0,0.0,0.541015625,-0.011474609375,-0.115478515625,-0.01531982421875,-0.015594482421875,0.011138916015625,C,1,2026-08-22_23-06-48,2026-08-22
0.9309090909090909,1.0,1.0,0.6175115207373272,0.8053691275167785,1.0,1.0,1.0,1.0,1.0,0.0,0.556640625,-0.0098876953125,-0.0689697265625,-0.0062255859375,-0.00555419921875,-0.00250244140625,C,2,2026-08-22_23-06-48,2026-08-22
0.9109090909090909,1.0,1.0,0.7373271889400922,0.37583892617449666,1.0,1.0,1.0,1.0,1.0,0.0,0.55126953125,-0.0113525390625,-0.06884765625,-0.008087158203125,-0.00848388671875,0.000335693359375,C,2,2026-08-22_23-06-48,2026-08-22
0.8818181818181818,0.9506802721088435,1.0,0.7373271889400922,0.348993288590604,1.0,1.0,1.0,1.0,1.0,0.0,0.549072265625,-0.012939453125,-0.0731201171875,-0.0106201171875,-0.009918212890625,0.0052490234375,C,2,2026-08-22_23-06-48,2026-08-22
0.8781818181818182,1.0,1.0,0.6497695852534562,0.348993288590604,1.0,1.0,1.0,1.0,1.0,0.0,0.5533447265625,-0.0096435546875,-0.08740234375,-0.018951416015625,-0.013885498046875,0.008819580078125,C,2,2026-08-22_23-06-48,2026-08-22
0.8727272727272727,1.0,1.0,0.8248847926267281,0.8053691275167785,1.0,1.0,1.0,1.0,1.0,0.0,0.5538330078125,-0.0115966796875,-0.0877685546875,-0.01934814453125,-0.0179443359375,0.007171630859375,C,2,2026-08-22_23-06-48,2026-08-22
1.0,1.0,1.0,0.8248847926267281,0.9261744966442953,1.0,1.0,1.0,1.0,1.0,0.0,0.5533447265625,-0.0072021484375,-0.09033203125,-0.017547607421875,-0.02239990234375,0.000701904296875,C,2,2026-08-22_23-06-48,2026-08-22
0.9890909090909091,1.0,1.0,0.8847926267281107,0.1610738255033557,1.0,1.0,1.0,1.0,1.0,0.0,0.54541015625,-0.00439453125,-0.0927734375,-0.007354736328125,-0.013397216796875,-0.001220703125,C,2,2026-08-22_23-06-48,2026-08-22
1.0,1.0,1.0,0.8525345622119815,0.1610738255033557,1.0,1.0,1.0,1.0,1.0,0.0,0.5487060546875,-0.0087890625,-0.091064453125,0.001739501953125,-0.00408935546875,-0.000762939453125,C,2,2026-08-22_23-06-48,2026-08-22
0.9945454545454545,1.0,1.0,0.5898617511520737,0.87248322147651,1.0,1.0,1.0,1.0,1.0,0.0,0.55859375,-0.0113525390625,-0.08935546875,-0.008941650390625,-0.00604248046875,0.00238037109375,C,2,2026-08-22_23-06-48,2026-08-22
0.9345454545454546,0.9625850340136054,1.0,0.6405529953917051,0.8053691275167785,1.0,1.0,1.0,1.0,1.0,0.0,0.555419921875,-0.00439453125,-0.08984375,-0.0159912109375,-0.01788330078125,0.01153564453125,C,2,2026-08-22_23-06-48,2026-08-22
1.0,1.0,1.0,0.6359447004608295,0.4429530201342282,1.0,1.0,1.0,1.0,1.0,0.0,0.549072265625,-0.011474609375,-0.0924072265625,-0.015045166015625,-0.0072021484375,0.013214111328125,C,2,2026-08-22_23-06-48,2026-08-22
0.8818181818181818,0.9642857142857143,1.0,0.6451612903225806,1.0,1.0,1.0,1.0,1.0,1.0,0.0,0.5555419921875,-0.01953125,-0.0850830078125,-0.014373779296875,0.001953125,0.006439208984375,C,2,2026-08-22_23-06-48,2026-08-22
0.9945454545454545,1.0,1.0,0.6820276497695853,0.8590604026845637,1.0,1.0,1.0,1.0,1.0,0.0,0.5499267578125,-0.0126953125,-0.0814208984375,-0.015106201171875,-9.1552734375e-05,0.00189208984375,C,2,2026-08-22_23-06-48,2026-08-22
0.9654545454545455,1.0,1.0,0.815668202764977,0.8187919463087249,1.0,1.0,1.0,1.0,1.0,0.0,0.552978515625,-0.0118408203125,-0.0799560546875,-0.008880615234375,-0.002716064453125,0.001220703125,C,2,2026-08-22_23-06-48,2026-08-22
0.9163636363636364,1.0,1.0,0.6543778801843319,0.9932885906040269,1.0,1.0,1.0,1.0,1.0,0.0,0.5543212890625,-0.0126953125,-0.0806884765625,-0.009765625,-0.00518798828125,0.003387451171875,C,2,2026-08-22_23-06-48,2026-08-22
0.9872727272727273,0.9625850340136054,1.0,0.9262672811059908,0.4563758389261745,1.0,1.0,1.0,1.0,1.0,0.0,0.5562744140625,-0.0137939453125,-0.077880859375,-0.0111083984375,-0.0068359375,0.00506591796875,C,2,2026-08-22_23-06-48,2026-08-22
1.0,1.0,1.0,0.7603686635944701,0.174496644295302,1.0,1.0,1.0,1.0,1.0,0.0,0.5517578125,-0.0103759765625,-0.0833740234375,-0.018341064453125,-0.00927734375,0.004180908203125,C,2,2026-08-22_23-06-48,2026-08-22
0.9636363636363636,0.9914965986394558,1.0,0.5990783410138248,0.8053691275167785,1.0,1.0,1.0,1.0,1.0,0.0,0.556884765625,-0.0076904296875,-0.090087890625,-0.01776123046875,-0.010528564453125,0.003143310546875,C,2,2026-08-22_23-06-48,2026-08-22
0.9854545454545455,1.0,1.0,0.5990783410138248,0.8053691275167785,1.0,1.0,1.0,1.0,1.0,0.0,0.5565185546875,-0.0067138671875,-0.09130859375,-0.010101318359375,-0.010528564453125,0.002838134765625,C,2,2026-08-22_23-06-48,2026-08-22
0.9072727272727272,0.9863945578231292,1.0,0.6912442396313364,0.37583892617449666,1.0,1.0,1.0,1.0,1.0,0.0,0.5489501953125,-0.0072021484375,-0.0933837890625,-0.009307861328125,-0.0032958984375,0.00048828125,C,2,2026-08-22_23-06-48,2026-08-22
1.0,1.0,1.0,0.5898617511520737,0.8590604026845637,1.0,1.0,1.0,1.0,1.0,0.0,0.5496826171875,-0.0093994140625,-0.0947265625,-0.00347900390625,0.01019287109375,-0.000213623046875,C,2,2026-08-22_23-06-48,2026-08-22
0.9654545454545455,0.9625850340136054,1.0,0.7695852534562212,0.5100671140939598,1.0,1.0,1.0,1.0,1.0,0.0,0.54833984375,-0.013427734375,-0.0853271484375,-0.007598876953125,0.018829345703125,-0.00274658203125,C,2,2026-08-22_23-06-48,2026-08-22
0.8818181818181818,1.0,1.0,0.6866359447004609,0.9664429530201343,1.0,1.0,1.0,1.0,1.0,0.0,0.546630859375,-0.015869140625,-0.0802001953125,-0.01934814453125,0.01959228515625,-0.0015869140625,C,2,2026-08-22_23-06-48,2026-08-22
0.8054545454545454,1.0,1.0,0.6820276497695853,0.8053691275167785,1.0,1.0,1.0,1.0,1.0,0.0,0.5533447265625,-0.009521484375,-0.0792236328125,-0.0186767578125,0.010223388671875,0.0037841796875,C,2,2026-08-22_23-06-48,2026-08-22
1.0,0.9608843537414966,1.0,0.6221198156682027,0.33557046979865773,1.0,1.0,1.0,1.0,1.0,0.0,0.553466796875,-0.003173828125,-0.076416015625,-0.01300048828125,-0.005401611328125,0.006134033203125,C,2,2026-08-22_23-06-48,2026-08-22
0.8981818181818182,0.8707482993197279,0.8832116788321168,0.7235023041474654,0.1476510067114094,1.0,1.0,1.0,1.0,1.0,0.0,0.551513671875,-0.009033203125,-0.0794677734375,-0.01446533203125,-0.0052490234375,0.002899169921875,C,2,2026-08-22_23-06-48,2026-08-22
0.8763636363636363,0.9812925170068028,0.6496350364963503,0.5391705069124424,0.8053691275167785,1.0,1.0,1.0,1.0,1.0,0.0,0.5587158203125,-0.0062255859375,-0.0867919921875,-0.0037841796875,-0.002227783203125,0.000885009765625,C,2,2026-08-22_23-06-48,2026-08-22
0.9381818181818182,1.0,1.0,0.8894009216589862,0.48322147651006714,1.0,1.0,1.0,1.0,1.0,0.0,0.5589599609375,-0.0126953125,-0.083984375,-0.007110595703125,-0.00079345703125,-0.000701904296875,C,2,2026-08-22_23-06-48,2026-08-22
0.9345454545454546,0.9778911564625851,0.9854014598540146,0.728110599078341,0.8590604026845637,1.0,1.0,1.0,1.0,1.0,0.0,0.55419921875,-0.005859375,-0.0823974609375,-0.012939453125,-0.004638671875,0.003448486328125,C,2,2026-08-22_23-06-48,2026-08-22
1.0,1.0,1.0,0.6912442396313364,0.9932885906040269,1.0,1.0,1.0,1.0,1.0,0.0,0.551025390625,-0.0023193359375,-0.0760498046875,-0.014556884765625,-0.006805419921875,0.0087890625,C,2,2026-08-22_23-06-48,2026-08-22
0.92,0.9098639455782312,0.8759124087591241,0.42857142857142855,0.0,1.0,1.0,1.0,1.0,1.0,0.0,0.554931640625,-0.0028076171875,-0.0745849609375,-0.01763916015625,-0.01043701171875,0.0140380859375,C,2,2026-08-22_23-06-48,2026-08-22
0.850909090909091,0.9625850340136054,0.7408759124087592,0.5023041474654378,0.8859060402684564,1.0,1.0,1.0,1.0,1.0,0.0,0.5565185546875,-0.0064697265625,-0.0618896484375,-0.02520751953125,-0.024505615234375,0.01617431640625,C,2,2026-08-22_23-06-48,2026-08-22
0.94,1.0,0.7591240875912408,0.5898617511520737,0.9798657718120806,1.0,1.0,1.0,1.0,1.0,0.0,0.5531005859375,-0.0133056640625,-0.07958984375,-0.016845703125,-0.041107177734375,0.015045166015625,C,2,2026-08-22_23-06-48,2026-08-22
1.0,0.9149659863945578,0.9379562043795621,0.4423963133640553,0.8322147651006712,1.0,1.0,1.0,1.0,1.0,0.0,0.553955078125,-0.0120849609375,-0.087646484375,-0.013336181640625,-0.0389404296875,0.011016845703125,C,2,2026-08-22_23-06-48,2026-08-22
0.7909090909090909,0.9710884353741497,0.7043795620437956,0.6267281105990783,0.8053691275167785,1.0,1.0,1.0,1.0,1.0,0.0,0.5517578125,-0.009033203125,-0.0858154296875,-0.01226806640625,-0.018402099609375,0.005340576171875,C,2,2026-08-22_23-06-48,2026-08-22
1.0,1.0,1.0,0.47465437788018433,0.8053691275167785,1.0,1.0,1.0,1.0,1.0,0.0,0.5523681640625,-0.010009765625,-0.088134765625,-0.01141357421875,0.0048828125,0.00323486328125,C,2,2026-08-22_23-06-48,2026-08-22
0.9654545454545455,1.0,0.9452554744525548,0.7465437788018433,0.2684563758389262,1.0,1.0,1.0,1.0,1.0,0.0,0.5545654296875,-0.012939453125,-0.07470703125,-0.007537841796875,0.00177001953125,0.007843017578125,C,2,2026-08-22_23-06-48,2026-08-22
1.0,0.9931972789115646,0.9416058394160584,0.46543778801843316,0.9664429530201343,1.0,1.0,1.0,1.0,1.0,0.0,0.5562744140625,-0.01904296875,-0.0740966796875,-0.009918212890625,-0.0147705078125,0.011138916015625,C,2,2026-08-22_23-06-48,2026-08-22
0.9509090909090909,0.9863945578231292,1.0,0.8387096774193549,0.8053691275167785,1.0,1.0,1.0,1.0,1.0,0.0,0.5516357421875,-0.0220947265625,-0.0791015625,-0.0146484375,-0.03302001953125,0.010009765625,C,2,2026-08-22_23-06-48,2026-08-22
0.9854545454545455,1.0,1.0,0.8248847926267281,0.8053691275167785,1.0,1.0,1.0,1.0,1.0,0.0,0.55322265625,-0.0206298828125,-0.0888671875,-0.01495361328125,-0.0260009765625,0.006011962890625,C,2,2026-08-22_23-06-48,2026-08-22
1.0,1.0,1.0,1.0,1.0,1.0,1.0,1.0,1.0,1.0,1.0,0.5467529296875,-0.0010986328125,-0.0960693359375,-0.007843017578125,-0.023834228515625,0.0032958984375,C,3,2026-08-22_23-06-48,2026-08-22
1.0,1.0,1.0,0.815668202764977,0.8053691275167785,1.0,1.0,1.0,1.0,1.0,1.0,0.54541015625,-0.00146484375,-0.10107421875,-0.00762939453125,-0.0172119140625,0.007965087890625,C,3,2026-08-22_23-06-48,2026-08-22
1.0,1.0,0.9927007299270073,1.0,0.38926174496644295,1.0,1.0,1.0,1.0,1.0,1.0,0.5521240234375,0.0028076171875,-0.1021728515625,-0.011383056640625,-0.01171875,0.013427734375,C,3,2026-08-22_23-06-48,2026-08-22
1.0,1.0,1.0,1.0,0.8053691275167785,1.0,1.0,1.0,1.0,1.0,1.0,0.55126953125,-0.007080078125,-0.1005859375,-0.021392822265625,-0.00933837890625,0.00689697265625,C,3,2026-08-22_23-06-48,2026-08-22
1.0,1.0,0.9963503649635036,0.8248847926267281,0.8053691275167785,1.0,1.0,1.0,1.0,1.0,1.0,0.5543212890625,0.0059814453125,-0.10009765625,-0.02685546875,-0.02056884765625,0.006500244140625,C,3,2026-08-22_23-06-48,2026-08-22
1.0,1.0,0.9927007299270073,0.9815668202764977,0.37583892617449666,1.0,1.0,1.0,1.0,1.0,1.0,0.547119140625,0.0040283203125,-0.1080322265625,-0.019439697265625,-0.014892578125,0.00531005859375,C,3,2026-08-22_23-06-48,2026-08-22
1.0,0.9965986394557823,1.0,1.0,1.0,1.0,1.0,1.0,1.0,1.0,1.0,0.546142578125,0.0008544921875,-0.114990234375,-0.020233154296875,-0.0064697265625,0.0015869140625,C,3,2026-08-22_23-06-48,2026-08-22
1.0,1.0,1.0,0.9585253456221198,0.22818791946308725,1.0,1.0,1.0,1.0,1.0,1.0,0.5421142578125,0.00341796875,-0.106201171875,-0.0294189453125,0.007568359375,-0.001708984375,C,3,2026-08-22_23-06-48,2026-08-22
1.0,1.0,1.0,0.9216589861751152,0.4966442953020134,1.0,1.0,1.0,1.0,1.0,1.0,0.5511474609375,0.0084228515625,-0.1053466796875,-0.0235595703125,0.00909423828125,0.001983642578125,C,3,2026-08-22_23-06-48,2026-08-22
1.0,1.0,1.0,0.8709677419354839,1.0,1.0,1.0,1.0,1.0,1.0,0.0,0.55712890625,0.0106201171875,-0.0958251953125,-0.011962890625,0.00018310546875,0.008209228515625,C,3,2026-08-22_23-06-48,2026-08-22
