flex_pinky,flex_ring,flex_middle,flex_index,flex_thumb,touch_index,touch_middle,touch_ring,touch_pinky,touch_r,touch_u,ax,ay,az,gx,gy,gz,label,rep,session,day
0.9650273224043716,0.9601990049751244,0.9592529711375212,0.7603686635944701,0.26,0.0,1.0,1.0,1.0,1.0,0.0,0.5704345703125,-0.10107421875,-0.0079345703125,-0.03082275390625,0.02239990234375,0.020355224609375,A,0,2026-08-23_09-51-49,2026-08-23
0.9923497267759562,0.9834162520729685,0.9881154499151104,0.7649769585253456,0.2,0.0,1.0,1.0,1.0,1.0,0.0,0.572998046875,-0.1097412109375,-0.0076904296875,-0.04229736328125,0.02264404296875,0.01226806640625,A,0,2026-08-23_09-51-49,2026-08-23
0.9868852459016394,0.9734660033167496,0.9558573853989814,0.9078341013824884,0.14,0.0,1.0,1.0,1.0,1.0,0.0,0.57470703125,-0.119873046875,-0.0052490234375,-0.055511474609375,0.02374267578125,-0.000274658203125,A,0,2026-08-23_09-51-49,2026-08-23
0.9726775956284152,0.9618573797678276,0.9609507640067912,0.9032258064516128,0.18,0.0,1.0,1.0,1.0,1.0,0.0,0.5770263671875,-0.1290283203125,-0.00341796875,-0.06329345703125,0.020843505859375,-0.019012451171875,A,0,2026-08-23_09-51-49,2026-08-23
0.9934426229508196,0.9800995024875622,0.9643463497453312,1.0,0.12,0.0,1.0,1.0,1.0,1.0,0.0,0.5869140625,-0.124267578125,-0.0001220703125,-0.093170166015625,0.017852783203125,-0.04833984375,A,0,2026-08-23_09-51-49,2026-08-23
0.9770491803278688,0.9734660033167496,0.9558573853989814,0.7419354838709677,0.3,0.0,1.0,1.0,1.0,1.0,0.0,0.58544921875,-0.10498046875,0.0068359375,-0.111480712890625,0.007965087890625,-0.067657470703125,A,0,2026-08-23_09-51-49,2026-08-23
0.9584699453551913,0.9593698175787728,0.9609507640067912,1.0,0.18,0.0,1.0,1.0,1.0,1.0,0.0,0.573486328125,-0.08642578125,0.0059814453125,-0.116943359375,0.002105712890625,-0.07763671875,A,0,2026-08-23_09-51-49,2026-08-23
0.985792349726776,0.9800995024875622,0.967741935483871,1.0,0.2,0.0,1.0,1.0,1.0,1.0,0.0,0.5712890625,-0.07861328125,0.0047607421875,-0.1085205078125,0.007537841796875,-0.084716796875,A,0,2026-08-23_09-51-49,2026-08-23
0.9956284153005464,0.9593698175787728,0.9558573853989814,1.0,0.38,0.0,1.0,1.0,1.0,1.0,0.0,0.564453125,-0.0784912109375,0.00634765625,-0.098175048828125,0.015777587890625,-0.093658447265625,A,0,2026-08-23_09-51-49,2026-08-23
0.9650273224043716,0.9626865671641792,0.967741935483871,0.7511520737327189,0.26,0.0,1.0,1.0,1.0,1.0,0.0,0.561279296875,-0.072509765625,-0.002685546875,-0.101104736328125,0.0274658203125,-0.099639892578125,A,0,2026-08-23_09-51-49,2026-08-23
0.9814207650273225,0.9734660033167496,0.9813242784380306,0.7788018433179723,0.18,0.0,1.0,1.0,1.0,1.0,0.0,0.556640625,-0.0504150390625,0.01513671875,-0.102996826171875,0.035430908203125,-0.095001220703125,A,0,2026-08-23_09-51-49,2026-08-23
0.9814207650273225,0.9643449419568824,0.9541595925297114,1.0,0.46,0.0,1.0,1.0,1.0,1.0,0.0,0.5545654296875,-0.0391845703125,0.0208740234375,-0.089874267578125,0.03082275390625,-0.083953857421875,A,0,2026-08-23_09-51-49,2026-08-23
0.9683060109289616,0.9734660033167496,0.9541595925297114,0.7235023041474654,0.3,0.0,1.0,1.0,1.0,1.0,0.0,0.55419921875,-0.0311279296875,0.0240478515625,-0.073455810546875,0.026214599609375,-0.07269287109375,A,0,2026-08-23_09-51-49,2026-08-23
0.9693989071038251,0.978441127694859,0.9728353140916808,0.8940092165898618,0.04,0.0,1.0,1.0,1.0,1.0,0.0,0.5555419921875,-0.029541015625,0.0130615234375,-0.067413330078125,0.029876708984375,-0.06378173828125,A,0,2026-08-23_09-51-49,2026-08-23
0.9595628415300548,0.9601990049751244,0.9473684210526316,0.6543778801843319,0.14,0.0,1.0,1.0,1.0,1.0,0.0,0.5531005859375,-0.03857421875,0.005126953125,-0.067291259765625,0.034271240234375,-0.06268310546875,A,0,2026-08-23_09-51-49,2026-08-23
0.9825136612021858,0.976782752902156,0.9745331069609507,1.0,0.38,0.0,1.0,1.0,1.0,1.0,0.0,0.5469970703125,-0.0374755859375,0.0084228515625,-0.07598876953125,0.036895751953125,-0.069366455078125,A,0,2026-08-23_09-51-49,2026-08-23
0.9814207650273225,0.9734660033167496,0.9507640067911716,0.9723502304147466,0.22,0.0,1.0,1.0,1.0,1.0,0.0,0.5445556640625,-0.0120849609375,0.02001953125,-0.061767578125,0.042510986328125,-0.060546875,A,0,2026-08-23_09-51-49,2026-08-23
0.9759562841530056,0.9800995024875622,0.9728353140916808,0.695852534562212,0.02,0.0,1.0,1.0,1.0,1.0,0.0,0.5565185546875,-0.0009765625,0.0343017578125,-0.0526123046875,0.04376220703125,-0.044769287109375,A,0,2026-08-23_09-51-49,2026-08-23
0.9923497267759562,0.9834162520729685,0.9745331069609507,0.6589861751152074,0.1,0.0,1.0,1.0,1.0,1.0,0.0,0.5543212890625,-0.0006103515625,0.032958984375,-0.04986572265625,0.027069091796875,-0.040130615234375,A,0,2026-08-23_09-51-49,2026-08-23
0.9770491803278688,0.9593698175787728,0.9439728353140916,0.7188940092165899,0.32,0.0,1.0,1.0,1.0,1.0,0.0,0.5628662109375,-0.0267333984375,0.038330078125,-0.096710205078125,0.0098876953125,-0.04852294921875,A,0,2026-08-23_09-51-49,2026-08-23
0.9792349726775956,0.9734660033167496,0.9711375212224108,0.9078341013824884,0.1,0.0,1.0,1.0,1.0,1.0,0.0,0.562744140625,-0.0325927734375,0.0423583984375,-0.169281005859375,-0.01220703125,-0.063079833984375,A,0,2026-08-23_09-51-49,2026-08-23
0.9879781420765028,0.9759535655058044,0.9541595925297114,0.7419354838709677,0.08,0.0,1.0,1.0,1.0,1.0,0.0,0.55712890625,-0.0076904296875,0.0526123046875,-0.1802978515625,-0.02667236328125,-0.06683349609375,A,0,2026-08-23_09-51-49,2026-08-23
0.9704918032786886,0.9751243781094528,0.9745331069609507,0.8847926267281107,0.42,0.0,1.0,1.0,1.0,1.0,0.0,0.552978515625,-0.0140380859375,0.04296875,-0.143310546875,-0.03143310546875,-0.05560302734375,A,0,2026-08-23_09-51-49,2026-08-23
0.9868852459016394,0.9734660033167496,0.9524617996604414,0.7511520737327189,0.14,0.0,1.0,1.0,1.0,1.0,0.0,0.5557861328125,-0.0272216796875,0.0364990234375,-0.138885498046875,-0.0296630859375,-0.063720703125,A,0,2026-08-23_09-51-49,2026-08-23
0.9683060109289616,0.9734660033167496,0.9490662139219016,1.0,0.12,0.0,1.0,1.0,1.0,1.0,0.0,0.5565185546875,-0.022705078125,0.033935546875,-0.14947509765625,-0.038604736328125,-0.06634521484375,A,0,2026-08-23_09-51-49,2026-08-23
0.971584699453552,0.9601990049751244,0.9643463497453312,0.9723502304147466,0.12,0.0,1.0,1.0,1.0,1.0,0.0,0.556396484375,-0.0147705078125,0.0308837890625,-0.155731201171875,-0.043609619140625,-0.078155517578125,A,0,2026-08-23_09-51-49,2026-08-23
0.9836065573770492,0.9825870646766168,0.967741935483871,0.7327188940092166,0.3,0.0,1.0,1.0,1.0,1.0,0.0,0.550537109375,0.0059814453125,0.0313720703125,-0.15740966796875,-0.04681396484375,-0.0836181640625,A,0,2026-08-23_09-51-49,2026-08-23
0.974863387978142,0.9759535655058044,0.9558573853989814,0.6820276497695853,0.38,0.0,1.0,1.0,1.0,1.0,0.0,0.5482177734375,0.03125,0.0225830078125,-0.148223876953125,-0.0489501953125,-0.0623779296875,A,0,2026-08-23_09-51-49,2026-08-23
0.9584699453551913,0.9543946932006634,0.933786078098472,0.6866359447004609,0.12,0.0,1.0,1.0,1.0,1.0,0.0,0.545654296875,0.0390625,0.018798828125,-0.119476318359375,-0.048858642578125,-0.03851318359375,A,0,2026-08-23_09-51-49,2026-08-23
0.9693989071038251,0.961028192371476,0.9558573853989814,0.7880184331797235,0.32,0.0,1.0,1.0,1.0,1.0,0.0,0.545654296875,0.04052734375,0.0125732421875,-0.079559326171875,-0.038543701171875,-0.02557373046875,A,0,2026-08-23_09-51-49,2026-08-23
0.9704918032786886,0.9742951907131012,0.9796264855687606,0.9539170506912442,0.22,0.0,1.0,1.0,1.0,1.0,0.0,0.544189453125,0.0379638671875,0.0045166015625,-0.0390625,-0.022613525390625,-0.0128173828125,A,0,2026-08-23_09-51-49,2026-08-23
0.9825136612021858,0.9825870646766168,0.9830220713073003,1.0,0.3,0.0,1.0,1.0,1.0,1.0,0.0,0.544921875,0.031005859375,0.005615234375,-0.01470947265625,-0.00494384765625,-0.003082275390625,A,0,2026-08-23_09-51-49,2026-08-23
0.974863387978142,0.9734660033167496,0.9507640067911716,0.9539170506912442,0.28,0.0,1.0,1.0,1.0,1.0,0.0,0.552978515625,0.0135498046875,0.010009765625,-0.017822265625,0.006622314453125,-0.00433349609375,A,0,2026-08-23_09-51-49,2026-08-23
0.9672131147540984,0.9751243781094528,0.967741935483871,0.935483870967742,0.2,0.0,1.0,1.0,1.0,1.0,0.0,0.5557861328125,0.0224609375,0.015625,-0.017730712890625,0.01220703125,-0.0035400390625,A,0,2026-08-23_09-51-49,2026-08-23
0.994535519125683,0.9850746268656716,0.9813242784380306,1.0,0.12,0.0,1.0,1.0,1.0,1.0,0.0,0.5601806640625,0.0206298828125,0.0286865234375,-0.02923583984375,0.01593017578125,0.0025634765625,A,0,2026-08-23_09-51-49,2026-08-23
0.9650273224043716,0.9618573797678276,0.9507640067911716,0.7373271889400922,0.22,0.0,1.0,1.0,1.0,1.0,0.0,0.5657958984375,0.0225830078125,0.0340576171875,-0.033416748046875,0.011016845703125,0.012054443359375,A,0,2026-08-23_09-51-49,2026-08-23
0.9770491803278688,0.9626865671641792,0.9507640067911716,1.0,0.22,0.0,1.0,1.0,1.0,1.0,0.0,0.5670166015625,0.0106201171875,0.0284423828125,-0.042449951171875,0.004974365234375,0.009979248046875,A,0,2026-08-23_09-51-49,2026-08-23
0.974863387978142,0.9734660033167496,0.966044142614601,0.7327188940092166,0.14,0.0,1.0,1.0,1.0,1.0,0.0,0.5684814453125,-0.0052490234375,0.0185546875,-0.057647705078125,0.0023193359375,-0.00433349609375,A,0,2026-08-23_09-51-49,2026-08-23
0.974863387978142,0.9618573797678276,0.9507640067911716,1.0,0.22,0.0,1.0,1.0,1.0,1.0,0.0,0.56494140625,0.0123291015625,0.0162353515625,-0.065093994140625,-0.0037841796875,-0.015625,A,0,2026-08-23_09-51-49,2026-08-23
0.9737704918032788,0.9825870646766168,0.9558573853989814,0.9447004608294932,0.34,0.0,1.0,1.0,1.0,1.0,0.0,0.5657958984375,0.02685546875,0.019287109375,-0.051300048828125,-0.008148193359375,-0.012786865234375,A,0,2026-08-23_09-51-49,2026-08-23
1.0,0.9552238805970148,0.9830220713073003,1.0,0.26,0.0,1.0,1.0,1.0,1.0,0.0,0.5535888671875,-0.01123046875,-0.0552978515625,-0.0140380859375,-0.02728271484375,-0.00958251953125,A,1,2026-08-23_09-51-49,2026-08-23
1.0,0.9485903814262024,1.0,0.9216589861751152,0.18,0.0,1.0,1.0,1.0,1.0,0.0,0.545166015625,-0.0150146484375,-0.0546875,-0.00933837890625,-0.0225830078125,-0.016387939453125,A,1,2026-08-23_09-51-49,2026-08-23
1.0,0.9577114427860696,1.0,1.0,0.44,0.0,1.0,1.0,1.0,1.0,0.0,0.546630859375,-0.0062255859375,-0.03759765625,-0.00634765625,-0.019195556640625,-0.02099609375,A,1,2026-08-23_09-51-49,2026-08-23
0.9923497267759562,0.9436152570480928,0.9626485568760612,0.815668202764977,0.42,0.0,1.0,1.0,1.0,1.0,0.0,0.5498046875,-0.0008544921875,-0.025634765625,-0.000152587890625,-0.034332275390625,-0.014984130859375,A,1,2026-08-23_09-51-49,2026-08-23
0.9989071038251366,0.9601990049751244,0.9405772495755518,0.9585253456221198,0.36,0.0,1.0,1.0,1.0,1.0,0.0,0.546630859375,-0.010498046875,-0.0421142578125,0.009490966796875,-0.055755615234375,-0.016143798828125,A,1,2026-08-23_09-51-49,2026-08-23
1.0,0.9436152570480928,0.9575551782682512,0.7880184331797235,0.38,0.0,1.0,1.0,1.0,1.0,0.0,0.537841796875,-0.0177001953125,-0.06640625,0.009613037109375,-0.053619384765625,-0.01641845703125,A,1,2026-08-23_09-51-49,2026-08-23
0.9956284153005464,0.9593698175787728,1.0,1.0,0.2,0.0,1.0,1.0,1.0,1.0,0.0,0.533935546875,-0.0189208984375,-0.0791015625,0.0167236328125,-0.031768798828125,-0.010955810546875,A,1,2026-08-23_09-51-49,2026-08-23
1.0,0.9543946932006634,0.9711375212224108,1.0,0.3,0.0,1.0,1.0,1.0,1.0,0.0,0.5439453125,-0.0076904296875,-0.0736083984375,0.03179931640625,-0.009552001953125,-0.0006103515625,A,1,2026-08-23_09-51-49,2026-08-23
1.0,0.9477611940298508,0.9847198641765704,0.8940092165898618,0.52,0.0,1.0,1.0,1.0,1.0,0.0,0.5501708984375,-0.00830078125,-0.0638427734375,0.042266845703125,-0.003082275390625,0.01416015625,A,1,2026-08-23_09-51-49,2026-08-23
1.0,0.9469320066334992,0.966044142614601,0.8663594470046083,0.4,0.0,1.0,1.0,1.0,1.0,0.0,0.5528564453125,-0.01171875,-0.055419921875,0.041290283203125,-0.008209228515625,0.02496337890625,A,1,2026-08-23_09-51-49,2026-08-23
1.0,0.9593698175787728,1.0,0.6866359447004609,0.4,0.0,1.0,1.0,1.0,1.0,0.0,0.5555419921875,-0.0206298828125,-0.0516357421875,0.0380859375,-0.02001953125,0.0299072265625,A,1,2026-08-23_09-51-49,2026-08-23
1.0,0.9477611940298508,1.0,1.0,0.32,0.0,1.0,1.0,1.0,1.0,0.0,0.5557861328125,-0.026611328125,-0.0584716796875,0.015289306640625,-0.0286865234375,0.020782470703125,A,1,2026-08-23_09-51-49,2026-08-23
1.0,0.9494195688225538,1.0,0.7373271889400922,0.5,0.0,1.0,1.0,1.0,1.0,0.0,0.5543212890625,-0.0277099609375,-0.0657958984375,-0.003204345703125,-0.03985595703125,0.009979248046875,A,1,2026-08-23_09-51-49,2026-08-23
1.0,0.945273631840796,0.99830220713073,0.8940092165898618,0.36,0.0,1.0,1.0,1.0,1.0,0.0,0.558349609375,-0.02392578125,-0.0726318359375,-0.01171875,-0.048431396484375,0.002197265625,A,1,2026-08-23_09-51-49,2026-08-23
1.0,0.951077943615257,0.99830220713073,0.6728110599078341,0.2,0.0,1.0,1.0,1.0,1.0,0.0,0.562255859375,-0.0179443359375,-0.0816650390625,-0.0025634765625,-0.05328369140625,-0.001007080078125,A,1,2026-08-23_09-51-49,2026-08-23
1.0,0.9461028192371476,0.9745331069609507,0.8617511520737328,0.42,0.0,1.0,1.0,1.0,1.0,0.0,0.5595703125,-0.01025390625,-0.0831298828125,0.006683349609375,-0.0521240234375,-0.003509521484375,A,1,2026-08-23_09-51-49,2026-08-23
1.0,0.9585406301824212,0.9830220713073003,0.9723502304147466,0.22,0.0,1.0,1.0,1.0,1.0,0.0,0.5604248046875,-0.006591796875,-0.067626953125,0.007781982421875,-0.052459716796875,-0.008880615234375,A,1,2026-08-23_09-51-49,2026-08-23
1.0,0.945273631840796,0.9830220713073003,0.5944700460829493,0.26,0.0,1.0,1.0,1.0,1.0,0.0,0.5548095703125,0.0059814453125,-0.0738525390625,0.0028076171875,-0.0531005859375,-0.01251220703125,A,1,2026-08-23_09-51-49,2026-08-23
1.0,0.9601990049751244,0.9847198641765704,0.7235023041474654,0.52,0.0,1.0,1.0,1.0,1.0,0.0,0.5477294921875,0.013671875,-0.081298828125,-0.002166748046875,-0.04510498046875,-0.00946044921875,A,1,2026-08-23_09-51-49,2026-08-23
1.0,0.9593698175787728,0.9915110356536504,1.0,0.28,0.0,1.0,1.0,1.0,1.0,0.0,0.554443359375,0.00927734375,-0.084716796875,-0.002532958984375,-0.033721923828125,0.003814697265625,A,1,2026-08-23_09-51-49,2026-08-23
1.0,0.9419568822553898,1.0,1.0,0.32,0.0,1.0,1.0,1.0,1.0,0.0,0.5570068359375,0.007080078125,-0.0712890625,0.00958251953125,-0.024688720703125,0.014404296875,A,1,2026-08-23_09-51-49,2026-08-23
1.0,0.965174129353234,1.0,1.0,0.5,0.0,1.0,1.0,1.0,1.0,0.0,0.54833984375,-0.01220703125,-0.0609130859375,0.017364501953125,-0.019561767578125,0.014678955078125,A,1,2026-08-23_09-51-49,2026-08-23
1.0,0.9502487562189056,0.9830220713073003,0.8110599078341014,0.3,0.0,1.0,1.0,1.0,1.0,0.0,0.543212890625,-0.010498046875,-0.0599365234375,0.007537841796875,-0.019927978515625,0.00775146484375,A,1,2026-08-23_09-51-49,2026-08-23
1.0,0.9543946932006634,0.9898132427843804,0.8847926267281107,0.38,0.0,1.0,1.0,1.0,1.0,0.0,0.5413818359375,-0.0057373046875,-0.06494140625,-0.00250244140625,-0.026580810546875,0.00494384765625,A,1,2026-08-23_09-51-49,2026-08-23
0.9934426229508196,0.9386401326699834,0.9711375212224108,1.0,0.2,0.0,1.0,1.0,1.0,1.0,0.0,0.5386962890625,0.001220703125,-0.0660400390625,-0.010284423828125,-0.03338623046875,0.004791259765625,A,1,2026-08-23_09-51-49,2026-08-23
0.994535519125683,0.9552238805970148,0.9796264855687606,0.7603686635944701,0.26,0.0,1.0,1.0,1.0,1.0,0.0,0.5404052734375,0.0009765625,-0.076904296875,-0.01287841796875,-0.035675048828125,0.0093994140625,A,1,2026-08-23_09-51-49,2026-08-23
0.9956284153005464,0.951077943615257,0.966044142614601,0.7373271889400922,0.28,0.0,1.0,1.0,1.0,1.0,0.0,0.545166015625,-0.0028076171875,-0.0809326171875,-0.018463134765625,-0.03570556640625,0.01202392578125,A,1,2026-08-23_09-51-49,2026-08-23
1.0,0.9585406301824212,0.9813242784380306,1.0,0.26,0.0,1.0,1.0,1.0,1.0,0.0,0.552490234375,-0.0096435546875,-0.0936279296875,-0.024871826171875,-0.03192138671875,0.010833740234375,A,1,2026-08-23_09-51-49,2026-08-23
1.0,0.9444444444444444,0.9558573853989814,1.0,0.52,0.0,1.0,1.0,1.0,1.0,0.0,0.5562744140625,-0.0084228515625,-0.0892333984375,-0.01849365234375,-0.025543212890625,0.012298583984375,A,1,2026-08-23_09-51-49,2026-08-23
1.0,0.9635157545605308,0.9779286926994908,0.9262672811059908,0.42,0.0,1.0,1.0,1.0,1.0,0.0,0.566650390625,-0.020751953125,-0.0919189453125,-0.0174560546875,-0.025360107421875,0.00970458984375,A,1,2026-08-23_09-51-49,2026-08-23
1.0,0.9535655058043118,1.0,1.0,0.2,0.0,1.0,1.0,1.0,1.0,0.0,0.5650634765625,-0.0277099609375,-0.1058349609375,-0.0299072265625,-0.0198974609375,-0.004852294921875,A,1,2026-08-23_09-51-49,2026-08-23
1.0,0.9734660033167496,0.9830220713073003,1.0,0.32,0.0,1.0,1.0,1.0,1.0,0.0,0.5567626953125,-0.0128173828125,-0.103515625,-0.03338623046875,-0.0078125,-0.010833740234375,A,1,2026-08-23_09-51-49,2026-08-23
1.0,0.961028192371476,0.9745331069609507,0.8847926267281107,0.98,0.0,1.0,1.0,1.0,1.0,0.0,0.5552978515625,-0.0076904296875,-0.093994140625,-0.029510498046875,0.011932373046875,-0.0067138671875,A,1,2026-08-23_09-51-49,2026-08-23
0.9934426229508196,0.941127694859038,0.9932088285229204,0.8525345622119815,0.34,0.0,1.0,1.0,1.0,1.0,0.0,0.5592041015625,-0.0086669921875,-0.079345703125,-0.028656005859375,0.027923583984375,-0.00946044921875,A,1,2026-08-23_09-51-49,2026-08-23
1.0,0.9618573797678276,0.99830220713073,0.783410138248848,0.36,0.0,1.0,1.0,1.0,1.0,0.0,0.561279296875,0.0015869140625,-0.0701904296875,-0.028778076171875,0.036407470703125,-0.010162353515625,A,1,2026-08-23_09-51-49,2026-08-23
1.0,0.9577114427860696,0.9762308998302208,0.8847926267281107,0.44,0.0,1.0,1.0,1.0,1.0,0.0,0.5535888671875,0.004150390625,-0.0621337890625,-0.019287109375,0.037200927734375,-0.004180908203125,A,1,2026-08-23_09-51-49,2026-08-23
1.0,0.9353233830845772,0.9541595925297114,0.8064516129032258,0.28,0.0,1.0,1.0,1.0,1.0,0.0,0.549560546875,-0.00439453125,-0.0634765625,-0.01165771484375,0.045379638671875,-0.003814697265625,A,1,2026-08-23_09-51-49,2026-08-23
0.974863387978142,0.9577114427860696,0.9830220713073003,0.8847926267281107,0.42,0.0,1.0,1.0,1.0,1.0,0.0,0.5537109375,-0.0042724609375,-0.0494384765625,-0.0174560546875,0.049224853515625,-0.006988525390625,A,1,2026-08-23_09-51-49,2026-08-23
0.9923497267759562,0.9585406301824212,1.0,0.8571428571428571,0.46,0.0,1.0,1.0,1.0,1.0,0.0,0.55126953125,0.0048828125,-0.049560546875,-0.023956298828125,0.042694091796875,-0.0003662109375,A,1,2026-08-23_09-51-49,2026-08-23
1.0,0.9635157545605308,0.9507640067911716,0.7603686635944701,0.4,0.0,1.0,1.0,1.0,1.0,0.0,0.5458984375,0.01220703125,-0.0556640625,-0.02001953125,0.041748046875,0.0096435546875,A,1,2026-08-23_09-51-49,2026-08-23
1.0,0.9593698175787728,1.0,0.7972350230414746,0.26,0.0,1.0,1.0,1.0,1.0,0.0,0.58203125,-0.011962890625,-0.0654296875,-0.024444580078125,-0.0078125,-0.00518798828125,A,2,2026-08-23_09-51-49,2026-08-23
1.0,0.9734660033167496,0.9932088285229204,1.0,0.56,0.0,1.0,1.0,1.0,1.0,0.0,0.57568359375,0.0068359375,-0.0623779296875,-0.029876708984375,-0.00634765625,-0.0181884765625,A,2,2026-08-23_09-51-49,2026-08-23
1.0,0.9469320066334992,0.99490662139219,0.6589861751152074,0.98,0.0,1.0,1.0,1.0,1.0,0.0,0.5650634765625,0.021484375,-0.060546875,-0.017120361328125,-0.001678466796875,-0.02093505859375,A,2,2026-08-23_09-51-49,2026-08-23
1.0,0.9585406301824212,1.0,0.8018433179723502,0.54,0.0,1.0,1.0,1.0,1.0,0.0,0.556396484375,0.028076171875,-0.0504150390625,-0.0072021484375,0.009765625,-0.015106201171875,A,2,2026-08-23_09-51-49,2026-08-23
1.0,0.9353233830845772,1.0,0.9032258064516128,0.98,0.0,1.0,1.0,1.0,1.0,0.0,0.552001953125,0.0262451171875,-0.0391845703125,0.002716064453125,0.011871337890625,-0.00994873046875,A,2,2026-08-23_09-51-49,2026-08-23
1.0,0.9585406301824212,0.9847198641765704,1.0,0.46,0.0,1.0,1.0,1.0,1.0,0.0,0.550048828125,0.0185546875,-0.0335693359375,-0.002838134765625,0.009613037109375,-0.00787353515625,A,2,2026-08-23_09-51-49,2026-08-23
1.0,0.9643449419568824,0.9847198641765704,0.9585253456221198,0.98,0.0,1.0,1.0,1.0,1.0,0.0,0.5523681640625,0.0216064453125,-0.0260009765625,-0.008575439453125,0.001068115234375,-0.0029296875,A,2,2026-08-23_09-51-49,2026-08-23
1.0,0.9734660033167496,0.99830220713073,1.0,0.22,0.0,1.0,1.0,1.0,1.0,0.0,0.5489501953125,0.0169677734375,-0.0274658203125,-0.002410888671875,-0.0086669921875,0.0018310546875,A,2,2026-08-23_09-51-49,2026-08-23
1.0,0.9535655058043118,0.9915110356536504,0.9400921658986175,0.28,0.0,1.0,1.0,1.0,1.0,0.0,0.5462646484375,-0.001220703125,-0.0263671875,0.00274658203125,-0.002227783203125,-0.002105712890625,A,2,2026-08-23_09-51-49,2026-08-23
1.0,0.9469320066334992,1.0,1.0,0.5,0.0,1.0,1.0,1.0,1.0,0.0,0.552978515625,0.00244140625,-0.0277099609375,0.003082275390625,-0.003326416015625,-0.00970458984375,A,2,2026-08-23_09-51-49,2026-08-23
1.0,0.951077943615257,0.9813242784380306,0.8294930875576036,0.98,0.0,1.0,1.0,1.0,1.0,0.0,0.5469970703125,0.0184326171875,-0.0250244140625,0.009979248046875,-0.00958251953125,-0.010009765625,A,2,2026-08-23_09-51-49,2026-08-23
1.0,0.9585406301824212,0.9881154499151104,1.0,0.42,0.0,1.0,1.0,1.0,1.0,0.0,0.548583984375,0.0179443359375,-0.0272216796875,0.02001953125,-0.016387939453125,-0.00640869140625,A,2,2026-08-23_09-51-49,2026-08-23
1.0,0.9734660033167496,1.0,0.9308755760368664,0.26,0.0,1.0,1.0,1.0,1.0,0.0,0.55712890625,0.02197265625,-0.0299072265625,0.0185546875,-0.019866943359375,-0.0062255859375,A,2,2026-08-23_09-51-49,2026-08-23
1.0,0.9560530679933664,0.99830220713073,0.8202764976958525,0.98,0.0,1.0,1.0,1.0,1.0,0.0,0.552978515625,0.0286865234375,-0.040283203125,0.018951416015625,-0.0225830078125,-0.003662109375,A,2,2026-08-23_09-51-49,2026-08-23
1.0,0.9593698175787728,0.9728353140916808,1.0,0.98,0.0,1.0,1.0,1.0,1.0,0.0,0.5556640625,0.034423828125,-0.042724609375,0.02008056640625,-0.026611328125,9.1552734375e-05,A,2,2026-08-23_09-51-49,2026-08-23
0.9934426229508196,0.9560530679933664,1.0,0.9447004608294932,0.34,0.0,1.0,1.0,1.0,1.0,0.0,0.556884765625,0.024169921875,-0.059326171875,0.021728515625,-0.022613525390625,0.00067138671875,A,2,2026-08-23_09-51-49,2026-08-23
1.0,0.9618573797678276,0.9864176570458404,0.8341013824884793,0.98,0.0,1.0,1.0,1.0,1.0,0.0,0.57177734375,0.0299072265625,-0.0679931640625,0.00811767578125,-0.013092041015625,-0.0035400390625,A,2,2026-08-23_09-51-49,2026-08-23
0.9934426229508196,0.9477611940298508,0.9711375212224108,1.0,0.46,0.0,1.0,1.0,1.0,1.0,0.0,0.5836181640625,0.0452880859375,-0.0743408203125,0.0,-0.009796142578125,-0.00799560546875,A,2,2026-08-23_09-51-49,2026-08-23
1.0,0.9593698175787728,1.0,1.0,0.98,0.0,1.0,1.0,1.0,1.0,0.0,0.5792236328125,0.04443359375,-0.0821533203125,-0.01171875,-0.012481689453125,-0.01068115234375,A,2,2026-08-23_09-51-49,2026-08-23
1.0,0.9560530679933664,0.9779286926994908,0.9447004608294932,0.98,0.0,1.0,1.0,1.0,1.0,0.0,0.574462890625,0.052978515625,-0.079345703125,-0.019317626953125,-0.008331298828125,-0.015838623046875,A,2,2026-08-23_09-51-49,2026-08-23
1.0,0.9560530679933664,0.99830220713073,0.8525345622119815,0.98,0.0,1.0,1.0,1.0,1.0,0.0,0.5594482421875,0.06298828125,-0.0819091796875,-0.02069091796875,-0.000579833984375,-0.00640869140625,A,2,2026-08-23_09-51-49,2026-08-23
1.0,0.9734660033167496,1.0,0.8341013824884793,0.98,0.0,1.0,1.0,1.0,1.0,0.0,0.5548095703125,0.08642578125,-0.0679931640625,-0.012847900390625,0.01605224609375,0.011505126953125,A,2,2026-08-23_09-51-49,2026-08-23
0.994535519125683,0.9759535655058044,1.0,0.8387096774193549,0.98,0.0,1.0,1.0,1.0,1.0,0.0,0.555908203125,0.1103515625,-0.0419921875,0.058135986328125,0.01837158203125,0.0504150390625,A,2,2026-08-23_09-51-49,2026-08-23
1.0,0.9585406301824212,1.0,1.0,0.52,0.0,1.0,1.0,1.0,1.0,0.0,0.570068359375,0.0369873046875,-0.0521240234375,0.102783203125,0.01214599609375,0.080963134765625,A,2,2026-08-23_09-51-49,2026-08-23
0.989071038251366,0.9601990049751244,1.0,1.0,0.06,0.0,1.0,1.0,1.0,1.0,0.0,0.5850830078125,-0.0435791015625,-0.060546875,0.0224609375,0.012725830078125,0.039581298828125,A,2,2026-08-23_09-51-49,2026-08-23
1.0,0.9635157545605308,1.0,0.7972350230414746,0.98,0.0,1.0,1.0,1.0,1.0,0.0,0.56982421875,-0.022216796875,-0.0228271484375,-0.062255859375,0.018035888671875,-0.011322021484375,A,2,2026-08-23_09-51-49,2026-08-23
1.0,0.945273631840796,1.0,0.631336405529954,0.44,0.0,1.0,1.0,1.0,1.0,0.0,0.5638427734375,0.0152587890625,-0.00634765625,-0.0621337890625,0.019012451171875,-0.017852783203125,A,2,2026-08-23_09-51-49,2026-08-23
0.9934426229508196,0.9469320066334992,0.9745331069609507,0.9815668202764976,0.98,0.0,1.0,1.0,1.0,1.0,0.0,0.5577392578125,0.0047607421875,-0.0040283203125,-0.05828857421875,0.018524169921875,-0.00640869140625,A,2,2026-08-23_09-51-49,2026-08-23
1.0,0.9626865671641792,1.0,1.0,0.98,0.0,1.0,1.0,1.0,1.0,0.0,0.5538330078125,-0.004638671875,-0.007080078125,-0.05938720703125,0.012725830078125,-0.013702392578125,A,2,2026-08-23_09-51-49,2026-08-23
1.0,0.9527363184079602,0.9847198641765704,1.0,0.54,0.0,1.0,1.0,1.0,1.0,0.0,0.544189453125,0.0035400390625,-0.005126953125,-0.050048828125,0.009552001953125,-0.025421142578125,A,2,2026-08-23_09-51-49,2026-08-23
1.0,0.9593698175787728,1.0,1.0,1.0,0.0,1.0,1.0,1.0,1.0,0.0,0.542724609375,0.0169677734375,-0.0152587890625,-0.024505615234375,0.00982666015625,-0.025543212890625,A,2,2026-08-23_09-51-49,2026-08-23
0.9989071038251366,0.9734660033167496,0.9626485568760612,1.0,0.98,0.0,1.0,1.0,1.0,1.0,0.0,0.543701171875,0.0213623046875,-0.016845703125,-0.004486083984375,0.013275146484375,-0.015655517578125,A,2,2026-08-23_09-51-49,2026-08-23
1.0,0.9535655058043118,1.0,0.880184331797235,0.38,0.0,1.0,1.0,1.0,1.0,0.0,0.53662109375,0.0223388671875,-0.0208740234375,0.002410888671875,0.01824951171875,-0.008575439453125,A,2,2026-08-23_09-51-49,2026-08-23
1.0,0.9543946932006634,0.9915110356536504,0.8064516129032258,0.4,0.0,1.0,1.0,1.0,1.0,0.0,0.5430908203125,0.0325927734375,-0.0216064453125,0.00262451171875,0.009918212890625,-0.00128173828125,A,2,2026-08-23_09-51-49,2026-08-23
0.9836065573770492,0.9593698175787728,0.9881154499151104,0.912442396313364,0.42,0.0,1.0,1.0,1.0,1.0,0.0,0.5498046875,0.0380859375,-0.0260009765625,-0.005401611328125,-0.002410888671875,0.00238037109375,A,2,2026-08-23_09-51-49,2026-08-23
1.0,0.9577114427860696,0.9898132427843804,0.8341013824884793,0.98,0.0,1.0,1.0,1.0,1.0,0.0,0.5494384765625,0.038330078125,-0.035400390625,-0.00506591796875,-0.0086669921875,0.001800537109375,A,2,2026-08-23_09-51-49,2026-08-23
1.0,0.9502487562189056,0.9864176570458404,1.0,0.56,0.0,1.0,1.0,1.0,1.0,0.0,0.5538330078125,0.042236328125,-0.0404052734375,-0.012969970703125,-0.008209228515625,0.001312255859375,A,2,2026-08-23_09-51-49,2026-08-23
1.0,0.9477611940298508,0.9643463497453312,0.976958525345622,0.5,0.0,1.0,1.0,1.0,1.0,0.0,0.562255859375,0.047119140625,-0.0321044921875,-0.0089111328125,-0.01177978515625,-0.00274658203125,A,2,2026-08-23_09-51-49,2026-08-23
0.989071038251366,0.9734660033167496,0.99490662139219,1.0,0.56,0.0,1.0,1.0,1.0,1.0,0.0,0.5572509765625,0.051513671875,-0.025634765625,-0.0010986328125,-0.01544189453125,-0.00238037109375,A,2,2026-08-23_09-51-49,2026-08-23
1.0,0.9444444444444444,0.9592529711375212,0.815668202764977,0.98,0.0,1.0,1.0,1.0,1.0,0.0,0.5618896484375,0.0447998046875,-0.0322265625,-0.00341796875,-0.016143798828125,-0.003265380859375,A,2,2026-08-23_09-51-49,2026-08-23
0.9814207650273225,0.9469320066334992,0.9473684210526316,0.815668202764977,0.1,0.0,1.0,1.0,1.0,1.0,0.0,0.5404052734375,-0.0439453125,-0.1102294921875,-0.005218505859375,-0.01885986328125,0.0260009765625,A,3,2026-08-23_09-51-49,2026-08-23
0.9912568306010928,0.9519071310116086,0.9202037351443124,0.912442396313364,0.12,0.0,1.0,1.0,1.0,1.0,0.0,0.541259765625,-0.0435791015625,-0.117919921875,-0.025787353515625,-0.01422119140625,0.02001953125,A,3,2026-08-23_09-51-49,2026-08-23
1.0,0.9734660033167496,1.0,0.663594470046083,0.3,0.0,1.0,1.0,1.0,1.0,0.0,0.542724609375,-0.0396728515625,-0.1226806640625,-0.017059326171875,-0.016143798828125,0.013641357421875,A,3,2026-08-23_09-51-49,2026-08-23
0.9814207650273225,0.9535655058043118,0.9473684210526316,0.8894009216589862,0.1,0.0,1.0,1.0,1.0,1.0,0.0,0.54296875,-0.033935546875,-0.1260986328125,-0.001708984375,-0.011016845703125,0.01995849609375,A,3,2026-08-23_09-51-49,2026-08-23
1.0,0.9593698175787728,0.9507640067911716,0.9308755760368664,0.14,0.0,1.0,1.0,1.0,1.0,0.0,0.54296875,-0.05224609375,-0.1341552734375,0.013671875,-0.007110595703125,0.02069091796875,A,3,2026-08-23_09-51-49,2026-08-23
1.0,0.9618573797678276,0.9643463497453312,0.9308755760368664,0.06,0.0,1.0,1.0,1.0,1.0,0.0,0.545654296875,-0.0546875,-0.1358642578125,0.0145263671875,0.002288818359375,0.015838623046875,A,3,2026-08-23_09-51-49,2026-08-23
1.0,0.9635157545605308,0.9711375212224108,0.9815668202764976,0.2,0.0,1.0,1.0,1.0,1.0,0.0,0.5501708984375,-0.0562744140625,-0.12548828125,0.008087158203125,0.010162353515625,0.01019287109375,A,3,2026-08-23_09-51-49,2026-08-23
0.9934426229508196,0.9461028192371476,0.9388794567062818,0.8894009216589862,0.46,0.0,1.0,1.0,1.0,1.0,0.0,0.5484619140625,-0.0543212890625,-0.118408203125,0.000732421875,0.011077880859375,0.008697509765625,A,3,2026-08-23_09-51-49,2026-08-23
1.0,0.9734660033167496,0.933786078098472,1.0,0.24,0.0,1.0,1.0,1.0,1.0,0.0,0.5479736328125,-0.0565185546875,-0.103271484375,0.004180908203125,0.01080322265625,0.009063720703125,A,3,2026-08-23_09-51-49,2026-08-23
1.0,0.9734660033167496,1.0,1.0,0.38,0.0,1.0,1.0,1.0,1.0,0.0,0.5545654296875,-0.0653076171875,-0.1011962890625,0.006195068359375,0.01068115234375,0.00494384765625,A,3,2026-08-23_09-51-49,2026-08-23
1.0,0.9593698175787728,0.9711375212224108,0.8847926267281107,0.34,0.0,1.0,1.0,1.0,1.0,0.0,0.5538330078125,-0.059326171875,-0.099365234375,0.00579833984375,0.008209228515625,0.00091552734375,A,3,2026-08-23_09-51-49,2026-08-23
1.0,0.9618573797678276,0.9609507640067912,0.6359447004608295,0.18,0.0,1.0,1.0,1.0,1.0,0.0,0.55029296875,-0.049560546875,-0.10302734375,0.011810302734375,0.0059814453125,0.003143310546875,A,3,2026-08-23_09-51-49,2026-08-23
1.0,0.9543946932006634,0.9507640067911716,0.7557603686635944,0.1,0.0,1.0,1.0,1.0,1.0,0.0,0.543701171875,-0.0555419921875,-0.10791015625,0.02105712890625,0.008056640625,0.00445556640625,A,3,2026-08-23_09-51-49,2026-08-23
0.985792349726776,0.9618573797678276,0.9847198641765704,0.9170506912442395,0.32,0.0,1.0,1.0,1.0,1.0,0.0,0.5489501953125,-0.0574951171875,-0.112060546875,0.016998291015625,0.00909423828125,-0.003021240234375,A,3,2026-08-23_09-51-49,2026-08-23
0.9934426229508196,0.945273631840796,0.9558573853989814,0.7373271889400922,0.18,0.0,1.0,1.0,1.0,1.0,0.0,0.557373046875,-0.0484619140625,-0.1185302734375,0.016571044921875,0.008392333984375,-0.00628662109375,A,3,2026-08-23_09-51-49,2026-08-23
1.0,0.9593698175787728,0.9609507640067912,0.912442396313364,0.28,0.0,1.0,1.0,1.0,1.0,0.0,0.5579833984375,-0.0328369140625,-0.1156005859375,0.012847900390625,0.006622314453125,-0.002716064453125,A,3,2026-08-23_09-51-49,2026-08-23
1.0,0.9734660033167496,1.0,0.9262672811059908,0.1,0.0,1.0,1.0,1.0,1.0,0.0,0.55419921875,-0.0330810546875,-0.1160888671875,0.0108642578125,0.004364013671875,0.006561279296875,A,3,2026-08-23_09-51-49,2026-08-23
0.99672131147541,0.9543946932006634,0.9643463497453312,0.7603686635944701,0.42,0.0,1.0,1.0,1.0,1.0,0.0,0.5521240234375,-0.0361328125,-0.11865234375,0.007965087890625,0.00103759765625,0.006256103515625,A,3,2026-08-23_09-51-49,2026-08-23
1.0,0.9535655058043118,0.9830220713073003,0.7373271889400922,0.2,0.0,1.0,1.0,1.0,1.0,0.0,0.5360107421875,-0.0218505859375,-0.123779296875,0.01129150390625,0.00445556640625,0.00738525390625,A,3,2026-08-23_09-51-49,2026-08-23
1.0,0.9593698175787728,0.969439728353141,0.7096774193548387,0.18,0.0,1.0,1.0,1.0,1.0,0.0,0.5181884765625,-0.0126953125,-0.1158447265625,0.018402099609375,0.014923095703125,0.017791748046875,A,3,2026-08-23_09-51-49,2026-08-23
0.9978142076502732,0.9552238805970148,0.9711375212224108,1.0,0.3,0.0,1.0,1.0,1.0,1.0,0.0,0.515380859375,-0.0009765625,-0.0823974609375,0.006500244140625,0.035064697265625,0.035003662109375,A,3,2026-08-23_09-51-49,2026-08-23
0.99672131147541,0.956882255389718,0.9830220713073003,0.7050691244239631,0.44,0.0,1.0,1.0,1.0,1.0,0.0,0.5345458984375,-0.0125732421875,-0.055419921875,-0.0009765625,0.028564453125,0.052276611328125,A,3,2026-08-23_09-51-49,2026-08-23
1.0,0.956882255389718,0.9558573853989814,1.0,0.14,0.0,1.0,1.0,1.0,1.0,0.0,0.5445556640625,-0.048583984375,-0.0596923828125,-0.004608154296875,0.007659912109375,0.055755615234375,A,3,2026-08-23_09-51-49,2026-08-23
0.9934426229508196,0.9734660033167496,0.9592529711375212,1.0,0.24,0.0,1.0,1.0,1.0,1.0,0.0,0.5513916015625,-0.077392578125,-0.0750732421875,-0.013946533203125,-0.00396728515625,0.047149658203125,A,3,2026-08-23_09-51-49,2026-08-23
1.0,0.9601990049751244,1.0,0.9447004608294932,0.44,0.0,1.0,1.0,1.0,1.0,0.0,0.55224609375,-0.0950927734375,-0.0843505859375,-0.00335693359375,-0.001434326171875,0.037109375,A,3,2026-08-23_09-51-49,2026-08-23
0.9989071038251366,0.9593698175787728,0.9796264855687606,0.8894009216589862,0.5,0.0,1.0,1.0,1.0,1.0,0.0,0.554931640625,-0.108154296875,-0.095703125,0.006256103515625,0.005706787109375,0.022613525390625,A,3,2026-08-23_09-51-49,2026-08-23
1.0,0.9593698175787728,0.9524617996604414,0.663594470046083,0.22,0.0,1.0,1.0,1.0,1.0,0.0,0.5528564453125,-0.1026611328125,-0.0966796875,0.007537841796875,0.00927734375,0.006744384765625,A,3,2026-08-23_09-51-49,2026-08-23
0.9879781420765028,0.9535655058043118,0.9745331069609507,0.6682027649769585,0.5,0.0,1.0,1.0,1.0,1.0,0.0,0.5465087890625,-0.07958984375,-0.0921630859375,0.005157470703125,0.013153076171875,-0.000213623046875,A,3,2026-08-23_09-51-49,2026-08-23
1.0,0.9585406301824212,0.9507640067911716,0.8341013824884793,0.36,0.0,1.0,1.0,1.0,1.0,0.0,0.542236328125,-0.0660400390625,-0.0892333984375,0.000579833984375,0.019439697265625,-9.1552734375e-05,A,3,2026-08-23_09-51-49,2026-08-23
0.9726775956284152,0.9535655058043118,0.9456706281833616,1.0,0.3,0.0,1.0,1.0,1.0,1.0,0.0,0.5462646484375,-0.0576171875,-0.0850830078125,9.1552734375e-05,0.0186767578125,0.001129150390625,A,3,2026-08-23_09-51-49,2026-08-23
1.0,0.9577114427860696,0.9847198641765704,0.8341013824884793,0.42,0.0,1.0,1.0,1.0,1.0,0.0,0.5487060546875,-0.0556640625,-0.080810546875,0.0084228515625,0.014068603515625,-6.103515625e-05,A,3,2026-08-23_09-51-49,2026-08-23
1.0,0.951077943615257,0.9439728353140916,0.7373271889400922,0.48,0.0,1.0,1.0,1.0,1.0,0.0,0.5474853515625,-0.0516357421875,-0.082275390625,0.013946533203125,0.011138916015625,-3.0517578125e-05,A,3,2026-08-23_09-51-49,2026-08-23
1.0,0.9734660033167496,0.9898132427843804,1.0,0.32,0.0,1.0,1.0,1.0,1.0,0.0,0.55322265625,-0.0574951171875,-0.086669921875,0.019775390625,0.008544921875,0.00079345703125,A,3,2026-08-23_09-51-49,2026-08-23
0.9792349726775956,0.9469320066334992,0.9558573853989814,0.7788018433179723,0.36,0.0,1.0,1.0,1.0,1.0,0.0,0.55712890625,-0.0574951171875,-0.08984375,0.00836181640625,0.004180908203125,0.0003662109375,A,3,2026-08-23_09-51-49,2026-08-23
0.9901639344262296,0.9378109452736318,0.9558573853989814,0.8018433179723502,0.12,0.0,1.0,1.0,1.0,1.0,0.0,0.5572509765625,-0.05419921875,-0.09033203125,-0.00262451171875,-0.00164794921875,0.00067138671875,A,3,2026-08-23_09-51-49,2026-08-23
1.0,0.978441127694859,0.966044142614601,0.9861751152073732,0.12,0.0,1.0,1.0,1.0,1.0,0.0,0.552490234375,-0.057861328125,-0.08935546875,-0.0054931640625,-0.004058837890625,0.006866455078125,A,3,2026-08-23_09-51-49,2026-08-23
0.994535519125683,0.9593698175787728,0.9711375212224108,0.967741935483871,0.34,0.0,1.0,1.0,1.0,1.0,0.0,0.559326171875,-0.069091796875,-0.0892333984375,0.00042724609375,-0.005615234375,0.00494384765625,A,3,2026-08-23_09-51-49,2026-08-23
0.9934426229508196,0.9585406301824212,0.9541595925297114,1.0,0.18,0.0,1.0,1.0,1.0,1.0,0.0,0.558349609375,-0.0716552734375,-0.0867919921875,-3.0517578125e-05,-0.00469970703125,-0.003753662109375,A,3,2026-08-23_09-51-49,2026-08-23
1.0,0.9635157545605308,0.9592529711375212,0.8294930875576036,0.24,0.0,1.0,1.0,1.0,1.0,0.0,0.5587158203125,-0.059814453125,-0.0865478515625,-0.0006103515625,-0.00384521484375,-0.004119873046875,A,3,2026-08-23_09-51-49,2026-08-23
1.0,0.9643449419568824,0.9915110356536504,0.9815668202764976,0.38,0.0,1.0,1.0,1.0,1.0,0.0,0.552734375,-0.0618896484375,-0.0865478515625,-0.0006103515625,-0.0062255859375,-0.0008544921875,A,3,2026-08-23_09-51-49,2026-08-23
1.0,0.9734660033167496,0.9728353140916808,0.880184331797235,0.38,0.0,1.0,1.0,1.0,1.0,0.0,0.5699462890625,-0.021728515625,-0.08984375,-0.032562255859375,-0.02197265625,-0.00897216796875,A,4,2026-08-23_09-51-49,2026-08-23
1.0,0.9734660033167496,0.9575551782682512,0.8940092165898618,0.98,0.0,1.0,1.0,1.0,1.0,0.0,0.5694580078125,-0.0272216796875,-0.0958251953125,-0.03924560546875,-0.021636962890625,-0.007720947265625,A,4,2026-08-23_09-51-49,2026-08-23
0.9989071038251366,0.9585406301824212,0.9711375212224108,0.7373271889400922,0.5,0.0,1.0,1.0,1.0,1.0,0.0,0.5745849609375,-0.0206298828125,-0.090576171875,-0.045440673828125,-0.022979736328125,-0.006744384765625,A,4,2026-08-23_09-51-49,2026-08-23
1.0,0.9817578772802652,0.9643463497453312,0.935483870967742,0.98,0.0,1.0,1.0,1.0,1.0,0.0,0.5721435546875,-0.024658203125,-0.0919189453125,-0.03997802734375,-0.02557373046875,-0.009307861328125,A,4,2026-08-23_09-51-49,2026-08-23
1.0,0.9734660033167496,0.9728353140916808,0.8294930875576036,0.36,0.0,1.0,1.0,1.0,1.0,0.0,0.5699462890625,-0.0313720703125,-0.0965576171875,-0.03509521484375,-0.019866943359375,-0.013458251953125,A,4,2026-08-23_09-51-49,2026-08-23
1.0,0.9751243781094528,0.9456706281833616,0.7649769585253456,0.32,0.0,1.0,1.0,1.0,1.0,0.0,0.5679931640625,-0.0439453125,-0.1007080078125,-0.039093017578125,-0.008392333984375,-0.025177001953125,A,4,2026-08-23_09-51-49,2026-08-23
1.0,0.9643449419568824,0.9779286926994908,0.8064516129032258,0.28,0.0,1.0,1.0,1.0,1.0,0.0,0.566162109375,-0.0361328125,-0.10302734375,-0.0439453125,0.00537109375,-0.034027099609375,A,4,2026-08-23_09-51-49,2026-08-23
1.0,0.9734660033167496,0.9711375212224108,0.967741935483871,0.34,0.0,1.0,1.0,1.0,1.0,0.0,0.560791015625,-0.0313720703125,-0.0921630859375,-0.038970947265625,0.0155029296875,-0.028411865234375,A,4,2026-08-23_09-51-49,2026-08-23
1.0,0.9751243781094528,0.9796264855687606,1.0,0.2,0.0,1.0,1.0,1.0,1.0,0.0,0.5518798828125,-0.03515625,-0.0850830078125,-0.02215576171875,0.02056884765625,-0.019927978515625,A,4,2026-08-23_09-51-49,2026-08-23
1.0,0.98424543946932,0.9847198641765704,0.7096774193548387,0.46,0.0,1.0,1.0,1.0,1.0,0.0,0.5474853515625,-0.0521240234375,-0.0859375,-0.013519287109375,0.025909423828125,-0.0233154296875,A,4,2026-08-23_09-51-49,2026-08-23
1.0,0.9776119402985076,0.9728353140916808,0.7373271889400922,0.5,0.0,1.0,1.0,1.0,1.0,0.0,0.542236328125,-0.0418701171875,-0.0797119140625,-0.0048828125,0.029571533203125,-0.0269775390625,A,4,2026-08-23_09-51-49,2026-08-23
1.0,0.9618573797678276,0.9558573853989814,0.7327188940092166,0.36,0.0,1.0,1.0,1.0,1.0,0.0,0.5341796875,-0.040283203125,-0.07666015625,0.007049560546875,0.0267333984375,-0.020721435546875,A,4,2026-08-23_09-51-49,2026-08-23
1.0,0.9742951907131012,0.9507640067911716,0.7788018433179723,0.38,0.0,1.0,1.0,1.0,1.0,0.0,0.5399169921875,-0.044189453125,-0.0758056640625,0.0186767578125,0.020172119140625,-0.0107421875,A,4,2026-08-23_09-51-49,2026-08-23
1.0,0.9734660033167496,0.9643463497453312,0.6221198156682027,0.3,0.0,1.0,1.0,1.0,1.0,0.0,0.54541015625,-0.0496826171875,-0.0863037109375,0.027557373046875,0.01177978515625,-0.006591796875,A,4,2026-08-23_09-51-49,2026-08-23
1.0,0.9734660033167496,0.9592529711375212,0.7972350230414746,0.42,0.0,1.0,1.0,1.0,1.0,0.0,0.5467529296875,-0.05029296875,-0.0927734375,0.016571044921875,0.00775146484375,-0.014739990234375,A,4,2026-08-23_09-51-49,2026-08-23
1.0,0.9618573797678276,0.9779286926994908,1.0,0.36,0.0,1.0,1.0,1.0,1.0,0.0,0.5391845703125,-0.0299072265625,-0.0924072265625,0.011810302734375,0.00286865234375,-0.01947021484375,A,4,2026-08-23_09-51-49,2026-08-23
1.0,0.976782752902156,0.9864176570458404,0.815668202764977,0.32,0.0,1.0,1.0,1.0,1.0,0.0,0.53369140625,-0.0120849609375,-0.0841064453125,0.009033203125,0.011688232421875,-0.020477294921875,A,4,2026-08-23_09-51-49,2026-08-23
1.0,0.9734660033167496,0.9558573853989814,0.9078341013824884,0.34,0.0,1.0,1.0,1.0,1.0,0.0,0.5238037109375,0.00341796875,-0.1019287109375,0.00750732421875,0.015869140625,-0.0174560546875,A,4,2026-08-23_09-51-49,2026-08-23
1.0,0.9734660033167496,0.9898132427843804,0.8248847926267281,0.32,0.0,1.0,1.0,1.0,1.0,0.0,0.5565185546875,0.0111083984375,-0.05859375,0.01348876953125,0.02923583984375,-0.01092529296875,A,4,2026-08-23_09-51-49,2026-08-23
1.0,0.9776119402985076,0.966044142614601,0.9953917050691244,0.18,0.0,1.0,1.0,1.0,1.0,0.0,0.5601806640625,0.011474609375,-0.060546875,0.013519287109375,0.028076171875,-0.007598876953125,A,4,2026-08-23_09-51-49,2026-08-23
1.0,0.961028192371476,0.9558573853989814,0.8847926267281107,0.52,0.0,1.0,1.0,1.0,1.0,0.0,0.556640625,0.010986328125,-0.05078125,0.01373291015625,0.032135009765625,-0.00543212890625,A,4,2026-08-23_09-51-49,2026-08-23
1.0,0.9593698175787728,0.9558573853989814,0.967741935483871,0.42,0.0,1.0,1.0,1.0,1.0,0.0,0.5576171875,0.0050048828125,-0.0511474609375,0.009918212890625,0.0338134765625,-0.008331298828125,A,4,2026-08-23_09-51-49,2026-08-23
1.0,0.9734660033167496,0.9558573853989814,1.0,0.54,0.0,1.0,1.0,1.0,1.0,0.0,0.559814453125,0.009033203125,-0.0445556640625,0.01397705078125,0.026885986328125,-0.00958251953125,A,4,2026-08-23_09-51-49,2026-08-23
1.0,0.9734660033167496,0.9575551782682512,0.8525345622119815,0.34,0.0,1.0,1.0,1.0,1.0,0.0,0.564453125,0.0032958984375,-0.0582275390625,0.00946044921875,0.019989013671875,-0.009307861328125,A,4,2026-08-23_09-51-49,2026-08-23
1.0,0.9834162520729685,0.9813242784380306,0.9907834101382488,0.3,0.0,1.0,1.0,1.0,1.0,0.0,0.56884765625,0.00830078125,-0.058837890625,0.005859375,0.0137939453125,-0.0052490234375,A,4,2026-08-23_09-51-49,2026-08-23
1.0,0.9809286898839138,0.966044142614601,0.9539170506912442,0.24,0.0,1.0,1.0,1.0,1.0,0.0,0.5689697265625,-0.0045166015625,-0.067138671875,-0.000885009765625,0.007080078125,-0.001556396484375,A,4,2026-08-23_09-51-49,2026-08-23
1.0,0.9742951907131012,0.9524617996604414,0.6682027649769585,0.38,0.0,1.0,1.0,1.0,1.0,0.0,0.5679931640625,-0.01708984375,-0.0645751953125,-0.014556884765625,-9.1552734375e-05,-0.006439208984375,A,4,2026-08-23_09-51-49,2026-08-23
1.0,0.9742951907131012,0.9762308998302208,1.0,0.98,0.0,1.0,1.0,1.0,1.0,0.0,0.5655517578125,-0.012451171875,-0.0604248046875,-0.023284912109375,-0.006622314453125,-0.011474609375,A,4,2026-08-23_09-51-49,2026-08-23
1.0,0.98424543946932,0.9813242784380306,1.0,0.3,0.0,1.0,1.0,1.0,1.0,0.0,0.557861328125,-0.0147705078125,-0.0599365234375,-0.02325439453125,-0.01397705078125,-0.01031494140625,A,4,2026-08-23_09-51-49,2026-08-23
1.0,0.9817578772802652,1.0,1.0,0.28,0.0,1.0,1.0,1.0,1.0,0.0,0.5552978515625,-0.01708984375,-0.059326171875,-0.029266357421875,-0.014678955078125,-0.008636474609375,A,4,2026-08-23_09-51-49,2026-08-23
0.9989071038251366,0.9817578772802652,0.9558573853989814,1.0,0.52,0.0,1.0,1.0,1.0,1.0,0.0,0.5479736328125,-0.007568359375,-0.045654296875,-0.027679443359375,-0.0103759765625,-0.006134033203125,A,4,2026-08-23_09-51-49,2026-08-23
1.0,0.9593698175787728,0.9473684210526316,0.9585253456221198,0.38,0.0,1.0,1.0,1.0,1.0,0.0,0.548828125,-0.011962890625,-0.0390625,-0.024444580078125,-0.0062255859375,-0.00341796875,A,4,2026-08-23_09-51-49,2026-08-23
1.0,0.9867330016583749,0.9813242784380306,0.9262672811059908,0.98,0.0,1.0,1.0,1.0,1.0,0.0,0.5516357421875,-0.013916015625,-0.02685546875,-0.01953125,-0.008453369140625,-6.103515625e-05,A,4,2026-08-23_09-51-49,2026-08-23
1.0,0.9875621890547264,0.967741935483871,0.7557603686635944,0.36,0.0,1.0,1.0,1.0,1.0,0.0,0.5491943359375,-0.0201416015625,-0.0394287109375,-0.011138916015625,-0.01092529296875,0.000335693359375,A,4,2026-08-23_09-51-49,2026-08-23
1.0,0.9800995024875622,0.9762308998302208,1.0,0.3,0.0,1.0,1.0,1.0,1.0,0.0,0.544189453125,-0.0220947265625,-0.04638671875,-0.001678466796875,-0.0042724609375,-0.001007080078125,A,4,2026-08-23_09-51-49,2026-08-23
1.0,0.9585406301824212,0.9609507640067912,0.967741935483871,0.52,0.0,1.0,1.0,1.0,1.0,0.0,0.5428466796875,-0.008056640625,-0.0496826171875,0.009552001953125,0.00592041015625,0.000946044921875,A,4,2026-08-23_09-51-49,2026-08-23
1.0,0.9742951907131012,0.9643463497453312,1.0,0.36,0.0,1.0,1.0,1.0,1.0,0.0,0.5531005859375,-0.0189208984375,-0.048583984375,0.010345458984375,0.009857177734375,0.001007080078125,A,4,2026-08-23_09-51-49,2026-08-23
1.0,0.9859038142620232,0.9881154499151104,0.7788018433179723,0.2,0.0,1.0,1.0,1.0,1.0,0.0,0.5535888671875,-0.013427734375,-0.0413818359375,0.00830078125,0.007568359375,0.00042724609375,A,4,2026-08-23_09-51-49,2026-08-23
1.0,0.9734660033167496,0.967741935483871,0.8294930875576036,0.3,0.0,1.0,1.0,1.0,1.0,0.0,0.55615234375,-0.0086669921875,-0.0443115234375,0.01495361328125,0.00421142578125,0.005889892578125,A,4,2026-08-23_09-51-49,2026-08-23
1.0,0.9635157545605308,0.9388794567062818,0.6866359447004609,0.52,0.0,1.0,1.0,1.0,1.0,0.0,0.55859375,-0.01171875,-0.047607421875,0.017486572265625,0.004547119140625,0.005615234375,A,4,2026-08-23_09-51-49,2026-08-23
0.0,0.1368159203980099,0.266553480475382,0.0691244239631336,0.44,1.0,1.0,1.0,1.0,1.0,1.0,0.542236328125,0.00732421875,-0.135009765625,-0.011016845703125,-0.00653076171875,0.00665283203125,B,0,2026-08-23_09-51-49,2026-08-23
0.0,0.1434494195688225,0.2716468590831918,0.2672811059907834,0.18,1.0,1.0,1.0,1.0,1.0,1.0,0.5413818359375,0.0010986328125,-0.13720703125,-0.018524169921875,-0.01727294921875,0.006591796875,B,0,2026-08-23_09-51-49,2026-08-23
0.0,0.1417910447761194,0.2512733446519524,0.1797235023041474,0.1,1.0,1.0,1.0,1.0,1.0,1.0,0.5367431640625,0.000244140625,-0.1353759765625,-0.031402587890625,-0.019622802734375,-0.000152587890625,B,0,2026-08-23_09-51-49,2026-08-23
0.0,0.1509121061359867,0.2716468590831918,0.4331797235023041,0.98,1.0,1.0,1.0,1.0,1.0,1.0,0.5380859375,0.010498046875,-0.150390625,-0.02410888671875,-0.018310546875,0.000946044921875,B,0,2026-08-23_09-51-49,2026-08-23
0.0,0.154228855721393,0.230899830220713,0.2119815668202765,0.42,1.0,1.0,1.0,1.0,1.0,1.0,0.5443115234375,0.0009765625,-0.1510009765625,-0.018341064453125,-0.02130126953125,-0.001617431640625,B,0,2026-08-23_09-51-49,2026-08-23
0.0,0.154228855721393,0.2376910016977928,0.7557603686635944,0.34,1.0,1.0,1.0,1.0,1.0,1.0,0.545166015625,-0.0023193359375,-0.1583251953125,-0.01629638671875,-0.023193359375,-0.004547119140625,B,0,2026-08-23_09-51-49,2026-08-23
0.0,0.1475953565505804,0.2682512733446519,0.7972350230414746,0.06,1.0,1.0,1.0,1.0,1.0,1.0,0.5450439453125,-0.00927734375,-0.1612548828125,-0.026458740234375,-0.017425537109375,-0.009002685546875,B,0,2026-08-23_09-51-49,2026-08-23
0.0,0.1368159203980099,0.3344651952461799,0.8110599078341014,0.42,1.0,1.0,1.0,1.0,1.0,1.0,0.548828125,-0.0010986328125,-0.160400390625,-0.029693603515625,-0.008056640625,-0.012481689453125,B,0,2026-08-23_09-51-49,2026-08-23
0.0,0.1558872305140962,0.2495755517826825,0.6774193548387096,0.34,1.0,1.0,1.0,1.0,1.0,1.0,0.547119140625,-0.0009765625,-0.1614990234375,-0.03082275390625,-0.001190185546875,-0.01397705078125,B,0,2026-08-23_09-51-49,2026-08-23
0.0,0.148424543946932,0.2784380305602716,0.6497695852534562,0.98,1.0,1.0,1.0,1.0,1.0,1.0,0.5462646484375,0.0064697265625,-0.156494140625,-0.020355224609375,0.005279541015625,-0.01177978515625,B,0,2026-08-23_09-51-49,2026-08-23
0.0,0.1368159203980099,0.266553480475382,0.6036866359447005,0.98,1.0,1.0,1.0,1.0,1.0,1.0,0.543701171875,0.0093994140625,-0.1552734375,-0.013702392578125,0.012847900390625,-0.006317138671875,B,0,2026-08-23_09-51-49,2026-08-23
0.0,0.1708126036484245,0.2716468590831918,0.1612903225806451,0.08,1.0,1.0,1.0,1.0,1.0,1.0,0.54052734375,0.0103759765625,-0.1484375,-0.0009765625,0.02911376953125,-0.002899169921875,B,0,2026-08-23_09-51-49,2026-08-23
0.0,0.1509121061359867,0.2495755517826825,0.0,0.98,1.0,1.0,1.0,1.0,1.0,1.0,0.5321044921875,-0.000732421875,-0.1322021484375,0.010498046875,0.028564453125,-0.000762939453125,B,0,2026-08-23_09-51-49,2026-08-23
0.0,0.1708126036484245,0.2444821731748726,0.0737327188940092,0.98,1.0,1.0,1.0,1.0,1.0,1.0,0.5352783203125,-0.00439453125,-0.1248779296875,-0.008880615234375,0.013153076171875,-0.014678955078125,B,0,2026-08-23_09-51-49,2026-08-23
0.0,0.1724709784411277,0.2258064516129032,0.1474654377880184,0.44,1.0,1.0,1.0,1.0,1.0,1.0,0.52978515625,0.0172119140625,-0.1298828125,-0.015167236328125,-0.0030517578125,-0.0115966796875,B,0,2026-08-23_09-51-49,2026-08-23
0.0,0.181592039800995,0.2835314091680815,0.0,0.34,1.0,1.0,1.0,1.0,1.0,1.0,0.5362548828125,0.0115966796875,-0.1322021484375,-0.01995849609375,-0.007293701171875,-0.00341796875,B,0,2026-08-23_09-51-49,2026-08-23
0.0,0.1857379767827529,0.2682512733446519,0.0,0.5,1.0,1.0,1.0,1.0,1.0,1.0,0.528564453125,0.0186767578125,-0.1385498046875,-0.023101806640625,-0.00140380859375,0.005401611328125,B,0,2026-08-23_09-51-49,2026-08-23
0.0,0.1666666666666666,0.2461799660441426,0.2258064516129032,0.34,1.0,1.0,1.0,1.0,1.0,1.0,0.533447265625,0.0140380859375,-0.1409912109375,-0.018951416015625,-0.00140380859375,0.011932373046875,B,0,2026-08-23_09-51-49,2026-08-23
0.0,0.1782752902155887,0.232597623089983,0.4470046082949309,0.3,1.0,1.0,1.0,1.0,1.0,1.0,0.5384521484375,0.013427734375,-0.1451416015625,-0.01617431640625,-0.00628662109375,0.018035888671875,B,0,2026-08-23_09-51-49,2026-08-23
0.0,0.175787728026534,0.2597623089983022,0.1198156682027649,0.1,1.0,1.0,1.0,1.0,1.0,1.0,0.537109375,0.0089111328125,-0.142822265625,-0.025054931640625,-0.009521484375,0.01947021484375,B,0,2026-08-23_09-51-49,2026-08-23
0.0,0.1674958540630182,0.2886247877758913,0.2811059907834101,0.16,1.0,1.0,1.0,1.0,1.0,1.0,0.539306640625,0.007568359375,-0.1395263671875,-0.033447265625,-0.0059814453125,0.0140380859375,B,0,2026-08-23_09-51-49,2026-08-23
0.0,0.165837479270315,0.2580645161290322,0.3317972350230415,0.12,1.0,1.0,1.0,1.0,1.0,1.0,0.5455322265625,0.011962890625,-0.1357421875,-0.036102294921875,-0.004302978515625,0.00836181640625,B,0,2026-08-23_09-51-49,2026-08-23
0.0,0.1583747927031509,0.2275042444821731,0.2534562211981567,0.36,1.0,1.0,1.0,1.0,1.0,1.0,0.543701171875,0.0098876953125,-0.138916015625,-0.02838134765625,0.0013427734375,0.004241943359375,B,0,2026-08-23_09-51-49,2026-08-23
0.0,0.1674958540630182,0.2614601018675722,0.2949308755760368,0.26,1.0,1.0,1.0,1.0,1.0,1.0,0.550048828125,0.0147705078125,-0.1290283203125,-0.025665283203125,0.006500244140625,-0.00103759765625,B,0,2026-08-23_09-51-49,2026-08-23
0.0,0.1650082918739635,0.2495755517826825,0.2857142857142857,0.04,1.0,1.0,1.0,1.0,1.0,1.0,0.545166015625,0.0179443359375,-0.1207275390625,-0.020294189453125,0.005401611328125,-0.00360107421875,B,0,2026-08-23_09-51-49,2026-08-23
0.0,0.1608623548922056,0.2054329371816638,0.3456221198156682,0.42,1.0,1.0,1.0,1.0,1.0,1.0,0.5462646484375,0.021240234375,-0.114501953125,-0.01702880859375,0.003997802734375,-0.000579833984375,B,0,2026-08-23_09-51-49,2026-08-23
0.0,0.1807628524046434,0.2461799660441426,0.1705069124423963,0.98,1.0,1.0,1.0,1.0,1.0,1.0,0.5460205078125,0.025390625,-0.1146240234375,-0.012298583984375,-0.0006103515625,0.002777099609375,B,0,2026-08-23_09-51-49,2026-08-23
0.0,0.1608623548922056,0.2801358234295416,0.152073732718894,0.44,1.0,1.0,1.0,1.0,1.0,1.0,0.5452880859375,0.0126953125,-0.117919921875,-0.01019287109375,-0.006317138671875,0.0048828125,B,0,2026-08-23_09-51-49,2026-08-23
0.0,0.1691542288557214,0.266553480475382,0.1935483870967742,0.38,1.0,1.0,1.0,1.0,1.0,1.0,0.546875,0.0201416015625,-0.1246337890625,-0.012237548828125,-0.0067138671875,-0.00103759765625,B,0,2026-08-23_09-51-49,2026-08-23
0.0,0.1733001658374792,0.2767402376910017,0.2350230414746544,0.18,1.0,1.0,1.0,1.0,1.0,1.0,0.541015625,0.019775390625,-0.1273193359375,-0.011383056640625,-0.0020751953125,-0.01043701171875,B,0,2026-08-23_09-51-49,2026-08-23
0.0,0.181592039800995,0.2495755517826825,0.2073732718894009,0.4,1.0,1.0,1.0,1.0,1.0,1.0,0.5457763671875,0.0250244140625,-0.133544921875,-0.0025634765625,0.006439208984375,-0.013031005859375,B,0,2026-08-23_09-51-49,2026-08-23
0.0,0.1840796019900497,0.2563667232597623,0.2350230414746544,0.06,1.0,1.0,1.0,1.0,1.0,1.0,0.54638671875,0.02197265625,-0.1317138671875,0.01104736328125,0.01025390625,-0.011962890625,B,0,2026-08-23_09-51-49,2026-08-23
0.0,0.1674958540630182,0.2393887945670628,0.2027649769585253,0.98,1.0,1.0,1.0,1.0,1.0,1.0,0.5472412109375,0.018798828125,-0.1343994140625,0.011474609375,0.011474609375,-0.01153564453125,B,0,2026-08-23_09-51-49,2026-08-23
0.0,0.1708126036484245,0.2546689303904924,0.2949308755760368,0.2,1.0,1.0,1.0,1.0,1.0,1.0,0.548583984375,0.0186767578125,-0.1353759765625,0.0052490234375,0.015838623046875,-0.01531982421875,B,0,2026-08-23_09-51-49,2026-08-23
0.0,0.1550580431177446,0.2139219015280135,0.2442396313364055,0.34,1.0,1.0,1.0,1.0,1.0,1.0,0.543701171875,0.020751953125,-0.12890625,-0.0078125,0.00311279296875,-0.013702392578125,B,0,2026-08-23_09-51-49,2026-08-23
0.0,0.1633499170812603,0.2224108658743633,0.2949308755760368,0.98,1.0,1.0,1.0,1.0,1.0,1.0,0.54052734375,0.0172119140625,-0.1339111328125,-0.023345947265625,0.004547119140625,-0.016937255859375,B,0,2026-08-23_09-51-49,2026-08-23
0.0,0.1708126036484245,0.2258064516129032,0.1198156682027649,0.44,1.0,1.0,1.0,1.0,1.0,1.0,0.546142578125,0.025146484375,-0.13671875,-0.02276611328125,0.00653076171875,-0.016510009765625,B,0,2026-08-23_09-51-49,2026-08-23
0.0,0.1724709784411277,0.2495755517826825,0.304147465437788,0.12,1.0,1.0,1.0,1.0,1.0,1.0,0.5438232421875,0.0244140625,-0.1346435546875,-0.0167236328125,0.00714111328125,-0.01397705078125,B,0,2026-08-23_09-51-49,2026-08-23
0.0,0.1898839137645107,0.2852292020373514,0.2949308755760368,0.28,1.0,1.0,1.0,1.0,1.0,1.0,0.5439453125,0.0233154296875,-0.1312255859375,-0.0115966796875,0.0062255859375,-0.009521484375,B,0,2026-08-23_09-51-49,2026-08-23
0.0,0.1616915422885572,0.2495755517826825,0.2442396313364055,0.28,1.0,1.0,1.0,1.0,1.0,0.0,0.540771484375,0.0213623046875,-0.126220703125,-0.014251708984375,0.003875732421875,-0.008758544921875,B,0,2026-08-23_09-51-49,2026-08-23
0.0,0.1285240464344942,0.2886247877758913,0.0046082949308755,0.52,1.0,1.0,1.0,1.0,1.0,1.0,0.5491943359375,0.0091552734375,-0.1162109375,-0.001373291015625,-0.03839111328125,0.009979248046875,B,1,2026-08-23_09-51-49,2026-08-23
0.0,0.1077943615257048,0.3089983022071307,0.2304147465437788,0.24,1.0,1.0,1.0,1.0,1.0,1.0,0.5509033203125,0.0013427734375,-0.12744140625,0.0037841796875,-0.046417236328125,0.01220703125,B,1,2026-08-23_09-51-49,2026-08-23
0.0,0.1243781094527363,0.3242784380305603,0.2949308755760368,0.32,1.0,1.0,1.0,1.0,1.0,1.0,0.54296875,0.000244140625,-0.1278076171875,0.00537109375,-0.05108642578125,0.009063720703125,B,1,2026-08-23_09-51-49,2026-08-23
0.0,0.1368159203980099,0.33276740237691,0.0,0.1,1.0,1.0,1.0,1.0,1.0,1.0,0.538818359375,0.001220703125,-0.1351318359375,0.004669189453125,-0.03631591796875,0.00048828125,B,1,2026-08-23_09-51-49,2026-08-23
0.0,0.1243781094527363,0.3191850594227504,0.5668202764976958,0.98,1.0,1.0,1.0,1.0,1.0,1.0,0.542724609375,0.0015869140625,-0.1312255859375,0.004974365234375,-0.029327392578125,-0.01025390625,B,1,2026-08-23_09-51-49,2026-08-23
0.0,0.1368159203980099,0.2937181663837012,0.0,0.52,1.0,1.0,1.0,1.0,1.0,1.0,0.54345703125,0.0028076171875,-0.1434326171875,0.009674072265625,-0.038330078125,-0.0167236328125,B,1,2026-08-23_09-51-49,2026-08-23
0.0,0.1243781094527363,0.3225806451612903,0.0,1.0,1.0,1.0,1.0,1.0,1.0,1.0,0.540771484375,-0.0003662109375,-0.1461181640625,0.003387451171875,-0.029815673828125,-0.01617431640625,B,1,2026-08-23_09-51-49,2026-08-23
0.0,0.1243781094527363,0.3039049235993208,0.1474654377880184,0.38,1.0,1.0,1.0,1.0,1.0,1.0,0.5421142578125,0.0062255859375,-0.140380859375,-0.003662109375,-0.011749267578125,-0.011199951171875,B,1,2026-08-23_09-51-49,2026-08-23
0.0,0.1028192371475953,0.3157894736842105,0.3502304147465437,0.5,1.0,1.0,1.0,1.0,1.0,1.0,0.5445556640625,0.00341796875,-0.140869140625,-0.005340576171875,-0.0054931640625,-0.007598876953125,B,1,2026-08-23_09-51-49,2026-08-23
0.0,0.1459369817578772,0.3022071307300509,0.304147465437788,0.32,1.0,1.0,1.0,1.0,1.0,1.0,0.543701171875,0.0042724609375,-0.1300048828125,0.0064697265625,-0.003021240234375,-0.007537841796875,B,1,2026-08-23_09-51-49,2026-08-23
0.0,0.1285240464344942,0.2495755517826825,0.3271889400921659,0.98,1.0,1.0,1.0,1.0,1.0,1.0,0.541748046875,0.0076904296875,-0.123779296875,0.0050048828125,0.01116943359375,-0.01092529296875,B,1,2026-08-23_09-51-49,2026-08-23
0.0,0.1417910447761194,0.3174872665534805,0.1566820276497695,0.34,1.0,1.0,1.0,1.0,1.0,1.0,0.5430908203125,0.020263671875,-0.12109375,0.010589599609375,0.018798828125,-0.010101318359375,B,1,2026-08-23_09-51-49,2026-08-23
0.0,0.1409618573797678,0.3089983022071307,0.1336405529953917,0.34,1.0,1.0,1.0,1.0,1.0,1.0,0.5484619140625,0.0167236328125,-0.1156005859375,0.01336669921875,0.01678466796875,-0.00897216796875,B,1,2026-08-23_09-51-49,2026-08-23
0.0,0.1243781094527363,0.2393887945670628,0.0691244239631336,0.52,1.0,1.0,1.0,1.0,1.0,1.0,0.5462646484375,0.0240478515625,-0.1112060546875,0.016754150390625,0.006439208984375,-0.000518798828125,B,1,2026-08-23_09-51-49,2026-08-23
0.0,0.1310116086235489,0.2699490662139219,0.1382488479262673,0.98,1.0,1.0,1.0,1.0,1.0,1.0,0.5489501953125,0.01171875,-0.1168212890625,0.028533935546875,-0.0062255859375,0.009307861328125,B,1,2026-08-23_09-51-49,2026-08-23
0.0,0.1243781094527363,0.3089983022071307,0.2949308755760368,0.22,1.0,1.0,1.0,1.0,1.0,1.0,0.5516357421875,-0.0037841796875,-0.1192626953125,0.027740478515625,-0.01416015625,0.005035400390625,B,1,2026-08-23_09-51-49,2026-08-23
0.0,0.1243781094527363,0.3225806451612903,0.2258064516129032,0.98,1.0,1.0,1.0,1.0,1.0,1.0,0.54931640625,-0.0015869140625,-0.124267578125,0.01727294921875,-0.009002685546875,-0.00140380859375,B,1,2026-08-23_09-51-49,2026-08-23
0.0,0.1243781094527363,0.3361629881154499,0.1474654377880184,0.42,1.0,1.0,1.0,1.0,1.0,1.0,0.541748046875,0.00146484375,-0.1279296875,0.014404296875,0.004608154296875,-0.001617431640625,B,1,2026-08-23_09-51-49,2026-08-23
0.0,0.1475953565505804,0.2818336162988115,0.1382488479262673,0.32,1.0,1.0,1.0,1.0,1.0,1.0,0.546142578125,0.0008544921875,-0.130615234375,0.019317626953125,0.009918212890625,-0.00042724609375,B,1,2026-08-23_09-51-49,2026-08-23
0.0,0.1517412935323383,0.2784380305602716,0.1474654377880184,0.98,1.0,1.0,1.0,1.0,1.0,1.0,0.5546875,0.001220703125,-0.130615234375,0.0224609375,0.005828857421875,-0.0008544921875,B,1,2026-08-23_09-51-49,2026-08-23
0.0,0.1310116086235489,0.300509337860781,0.2442396313364055,0.98,1.0,1.0,1.0,1.0,1.0,1.0,0.55078125,0.0032958984375,-0.1331787109375,0.0155029296875,9.1552734375e-05,-0.000732421875,B,1,2026-08-23_09-51-49,2026-08-23
0.0,0.1260364842454394,0.3123938879456706,0.1935483870967742,0.2,1.0,1.0,1.0,1.0,1.0,1.0,0.541748046875,0.0010986328125,-0.15625,-0.001007080078125,0.00341796875,-0.000518798828125,B,1,2026-08-23_09-51-49,2026-08-23
0.0032786885245901,0.1475953565505804,0.3157894736842105,0.1152073732718894,0.98,1.0,1.0,1.0,1.0,1.0,1.0,0.5447998046875,0.0133056640625,-0.1337890625,0.005767822265625,0.020294189453125,-6.103515625e-05,B,1,2026-08-23_09-51-49,2026-08-23
0.0,0.1376451077943615,0.3803056027164685,0.1198156682027649,0.44,1.0,1.0,1.0,1.0,1.0,1.0,0.5538330078125,0.0096435546875,-0.1226806640625,0.01153564453125,0.027862548828125,-0.001068115234375,B,1,2026-08-23_09-51-49,2026-08-23
0.0,0.1467661691542288,0.2869269949066214,0.1705069124423963,0.1,1.0,1.0,1.0,1.0,1.0,1.0,0.548583984375,0.016845703125,-0.1187744140625,-0.001739501953125,0.02667236328125,-0.010498046875,B,1,2026-08-23_09-51-49,2026-08-23
0.0,0.1451077943615257,0.2818336162988115,0.2949308755760368,0.98,1.0,1.0,1.0,1.0,1.0,1.0,0.5550537109375,0.0234375,-0.1092529296875,-0.009246826171875,0.020111083984375,-0.0098876953125,B,1,2026-08-23_09-51-49,2026-08-23
0.0,0.1459369817578772,0.3089983022071307,0.2949308755760368,1.0,1.0,1.0,1.0,1.0,1.0,1.0,0.5567626953125,0.029052734375,-0.1116943359375,-0.013092041015625,0.012298583984375,0.0025634765625,B,1,2026-08-23_09-51-49,2026-08-23
0.0,0.1409618573797678,0.3582342954159592,0.1658986175115207,0.2,1.0,1.0,1.0,1.0,1.0,1.0,0.553466796875,0.021240234375,-0.1082763671875,-0.015380859375,-0.007049560546875,0.01287841796875,B,1,2026-08-23_09-51-49,2026-08-23
0.0,0.1467661691542288,0.2818336162988115,0.032258064516129,0.0,1.0,1.0,1.0,1.0,1.0,1.0,0.5509033203125,0.0120849609375,-0.0994873046875,-0.012603759765625,-0.011199951171875,0.008544921875,B,1,2026-08-23_09-51-49,2026-08-23
0.0,0.1558872305140962,0.3616298811544992,0.2488479262672811,0.28,1.0,1.0,1.0,1.0,1.0,1.0,0.5467529296875,0.0172119140625,-0.106201171875,-0.01446533203125,-0.00714111328125,-0.00482177734375,B,1,2026-08-23_09-51-49,2026-08-23
0.0,0.1318407960199005,0.3344651952461799,0.2027649769585253,0.98,1.0,1.0,1.0,1.0,1.0,1.0,0.547119140625,0.0218505859375,-0.098388671875,-0.007171630859375,-0.006744384765625,-0.006011962890625,B,1,2026-08-23_09-51-49,2026-08-23
0.0,0.1368159203980099,0.230899830220713,0.2350230414746544,0.14,1.0,1.0,1.0,1.0,1.0,1.0,0.5517578125,0.02392578125,-0.10009765625,0.000244140625,-0.016998291015625,0.000946044921875,B,1,2026-08-23_09-51-49,2026-08-23
0.0,0.154228855721393,0.2597623089983022,0.184331797235023,0.18,1.0,1.0,1.0,1.0,1.0,1.0,0.55078125,0.0145263671875,-0.09228515625,0.004669189453125,-0.022369384765625,0.004486083984375,B,1,2026-08-23_09-51-49,2026-08-23
0.0,0.1459369817578772,0.3276740237691001,0.2396313364055299,0.46,1.0,1.0,1.0,1.0,1.0,1.0,0.546142578125,0.0009765625,-0.100341796875,-0.009521484375,-0.0194091796875,-0.001861572265625,B,1,2026-08-23_09-51-49,2026-08-23
0.0,0.1608623548922056,0.2767402376910017,0.2211981566820276,0.56,1.0,1.0,1.0,1.0,1.0,1.0,0.5374755859375,0.0146484375,-0.0904541015625,-0.01885986328125,-0.02288818359375,-0.008758544921875,B,1,2026-08-23_09-51-49,2026-08-23
0.0,0.1459369817578772,0.2750424448217317,0.1612903225806451,0.18,1.0,1.0,1.0,1.0,1.0,1.0,0.5391845703125,0.0126953125,-0.0992431640625,-0.02105712890625,-0.02264404296875,-0.012939453125,B,1,2026-08-23_09-51-49,2026-08-23
0.0,0.1533996683250414,0.3293718166383701,0.2764976958525346,0.0,1.0,1.0,1.0,1.0,1.0,1.0,0.533447265625,0.02294921875,-0.0972900390625,-0.006195068359375,-0.01202392578125,-0.01214599609375,B,1,2026-08-23_09-51-49,2026-08-23
0.0,0.154228855721393,0.2495755517826825,0.1705069124423963,0.28,1.0,1.0,1.0,1.0,1.0,1.0,0.5340576171875,0.0196533203125,-0.095947265625,0.00982666015625,-0.00494384765625,-0.007476806640625,B,1,2026-08-23_09-51-49,2026-08-23
0.0,0.1492537313432835,0.3344651952461799,0.1013824884792626,0.0,1.0,1.0,1.0,1.0,1.0,1.0,0.53466796875,0.0169677734375,-0.1005859375,0.011932373046875,-0.00567626953125,-0.003631591796875,B,1,2026-08-23_09-51-49,2026-08-23
0.0,0.1633499170812603,0.3039049235993208,0.2626728110599078,0.0,1.0,1.0,1.0,1.0,1.0,1.0,0.5404052734375,0.0172119140625,-0.11279296875,0.00152587890625,-0.0113525390625,-0.0009765625,B,1,2026-08-23_09-51-49,2026-08-23
0.0,0.0,0.1409168081494057,0.3087557603686636,0.98,1.0,1.0,1.0,1.0,1.0,0.0,0.5404052734375,0.015380859375,-0.1265869140625,-0.0328369140625,-0.0101318359375,-0.00665283203125,B,2,2026-08-23_09-51-49,2026-08-23
0.0,0.0,0.1561969439728353,0.2672811059907834,0.3,1.0,1.0,1.0,1.0,1.0,0.0,0.5384521484375,0.018310546875,-0.1282958984375,-0.025115966796875,-0.01092529296875,-0.002593994140625,B,2,2026-08-23_09-51-49,2026-08-23
0.0,0.0,0.1409168081494057,0.2258064516129032,0.12,1.0,1.0,1.0,1.0,1.0,0.0,0.5379638671875,0.0223388671875,-0.121826171875,-0.01458740234375,-0.011688232421875,0.004058837890625,B,2,2026-08-23_09-51-49,2026-08-23
0.0,0.0,0.1018675721561969,0.3087557603686636,0.14,1.0,1.0,1.0,1.0,1.0,0.0,0.5364990234375,0.019287109375,-0.1209716796875,-0.01251220703125,-0.0108642578125,0.008087158203125,B,2,2026-08-23_09-51-49,2026-08-23
0.0,0.0,0.1561969439728353,0.1797235023041474,0.34,1.0,1.0,1.0,1.0,1.0,0.0,0.5430908203125,0.0164794921875,-0.122314453125,-0.01385498046875,-0.011627197265625,0.00872802734375,B,2,2026-08-23_09-51-49,2026-08-23
0.0,0.0,0.1595925297113752,0.271889400921659,0.26,1.0,1.0,1.0,1.0,1.0,0.0,0.549072265625,0.0164794921875,-0.1212158203125,-0.0111083984375,-0.014984130859375,0.01080322265625,B,2,2026-08-23_09-51-49,2026-08-23
0.0,0.0,0.1375212224108658,0.1474654377880184,0.0,1.0,1.0,1.0,1.0,1.0,0.0,0.5458984375,0.0107421875,-0.123779296875,-0.002349853515625,-0.022003173828125,0.01214599609375,B,2,2026-08-23_09-51-49,2026-08-23
0.0,0.0,0.1629881154499151,0.1566820276497695,0.18,1.0,1.0,1.0,1.0,1.0,0.0,0.5450439453125,0.003662109375,-0.123046875,0.000518798828125,-0.02264404296875,0.009490966796875,B,2,2026-08-23_09-51-49,2026-08-23
0.0,0.0,0.164685908319185,0.2857142857142857,0.22,1.0,1.0,1.0,1.0,1.0,0.0,0.5450439453125,0.0009765625,-0.1256103515625,0.004486083984375,-0.016845703125,0.00634765625,B,2,2026-08-23_09-51-49,2026-08-23
0.0,0.0,0.166383701188455,0.3087557603686636,0.1,1.0,1.0,1.0,1.0,1.0,0.0,0.5452880859375,0.00048828125,-0.1248779296875,0.02130126953125,-0.020294189453125,0.005828857421875,B,2,2026-08-23_09-51-49,2026-08-23
0.0,0.0041459369817578,0.1935483870967742,0.152073732718894,0.34,1.0,1.0,1.0,1.0,1.0,0.0,0.5458984375,-0.010009765625,-0.1268310546875,0.031036376953125,-0.020599365234375,0.0030517578125,B,2,2026-08-23_09-51-49,2026-08-23
0.0,0.0,0.1697792869269949,0.2949308755760368,0.06,1.0,1.0,1.0,1.0,1.0,0.0,0.546142578125,-0.006591796875,-0.1309814453125,0.036285400390625,-0.0240478515625,-0.000518798828125,B,2,2026-08-23_09-51-49,2026-08-23
0.0,0.0,0.1765704584040747,0.511520737327189,0.3,1.0,1.0,1.0,1.0,1.0,0.0,0.5419921875,-0.0096435546875,-0.1370849609375,0.04425048828125,-0.030853271484375,-0.00128173828125,B,2,2026-08-23_09-51-49,2026-08-23
0.0,0.0,0.1782682512733446,0.1474654377880184,0.02,1.0,1.0,1.0,1.0,1.0,0.0,0.5418701171875,-0.0123291015625,-0.1417236328125,0.044158935546875,-0.024383544921875,-0.006622314453125,B,2,2026-08-23_09-51-49,2026-08-23
0.0,0.0,0.1544991511035653,0.1244239631336405,0.24,1.0,1.0,1.0,1.0,1.0,0.0,0.53466796875,-0.0086669921875,-0.1414794921875,0.0504150390625,-0.020172119140625,-0.014129638671875,B,2,2026-08-23_09-51-49,2026-08-23
0.0,0.0,0.1290322580645161,0.2811059907834101,0.46,1.0,1.0,1.0,1.0,1.0,0.0,0.53759765625,-0.007568359375,-0.1429443359375,0.050567626953125,-0.020751953125,-0.01800537109375,B,2,2026-08-23_09-51-49,2026-08-23
0.0,0.0,0.1969439728353141,0.2949308755760368,0.0,1.0,1.0,1.0,1.0,1.0,0.0,0.5419921875,-0.00244140625,-0.1478271484375,0.04486083984375,-0.0245361328125,-0.017730712890625,B,2,2026-08-23_09-51-49,2026-08-23
0.0,0.0066334991708126,0.2173174872665534,0.336405529953917,0.1,1.0,1.0,1.0,1.0,1.0,0.0,0.5445556640625,0.001220703125,-0.1485595703125,0.046600341796875,-0.0291748046875,-0.011383056640625,B,2,2026-08-23_09-51-49,2026-08-23
0.0,0.0,0.1494057724957555,0.271889400921659,0.22,1.0,1.0,1.0,1.0,1.0,0.0,0.544677734375,-0.00146484375,-0.1566162109375,0.03802490234375,-0.02679443359375,-0.0133056640625,B,2,2026-08-23_09-51-49,2026-08-23
0.0,0.0,0.164685908319185,0.4009216589861751,0.1,1.0,1.0,1.0,1.0,1.0,0.0,0.5438232421875,0.005859375,-0.1715087890625,0.03387451171875,-0.0155029296875,-0.01824951171875,B,2,2026-08-23_09-51-49,2026-08-23
0.0,0.0,0.1188455008488964,0.423963133640553,0.14,1.0,1.0,1.0,1.0,1.0,0.0,0.5498046875,0.01171875,-0.171142578125,0.035247802734375,0.000396728515625,-0.01837158203125,B,2,2026-08-23_09-51-49,2026-08-23
0.0,0.0,0.1443123938879456,0.3410138248847926,0.42,1.0,1.0,1.0,1.0,1.0,0.0,0.5565185546875,0.0101318359375,-0.16796875,0.03643798828125,0.012359619140625,-0.021942138671875,B,2,2026-08-23_09-51-49,2026-08-23
0.0,0.0,0.1731748726655348,0.4423963133640553,0.44,1.0,1.0,1.0,1.0,1.0,0.0,0.55419921875,0.0050048828125,-0.165283203125,0.025146484375,0.024139404296875,-0.02838134765625,B,2,2026-08-23_09-51-49,2026-08-23
0.0,0.0,0.1765704584040747,0.3640552995391705,0.14,1.0,1.0,1.0,1.0,1.0,0.0,0.5469970703125,0.0142822265625,-0.1507568359375,0.016021728515625,0.032501220703125,-0.03009033203125,B,2,2026-08-23_09-51-49,2026-08-23
0.0,0.0041459369817578,0.1256366723259762,0.2857142857142857,0.2,1.0,1.0,1.0,1.0,1.0,0.0,0.544189453125,0.022705078125,-0.1412353515625,0.012847900390625,0.03790283203125,-0.028167724609375,B,2,2026-08-23_09-51-49,2026-08-23
0.0,0.0,0.1969439728353141,0.2903225806451613,0.22,1.0,1.0,1.0,1.0,1.0,0.0,0.5478515625,0.0323486328125,-0.1317138671875,0.009674072265625,0.038604736328125,-0.02935791015625,B,2,2026-08-23_09-51-49,2026-08-23
0.0,0.0016583747927031,0.1341256366723259,0.2949308755760368,0.14,1.0,1.0,1.0,1.0,1.0,0.0,0.54345703125,0.0357666015625,-0.120361328125,0.0123291015625,0.03277587890625,-0.027801513671875,B,2,2026-08-23_09-51-49,2026-08-23
0.0,0.0041459369817578,0.1952461799660441,0.2949308755760368,0.38,1.0,1.0,1.0,1.0,1.0,0.0,0.544189453125,0.0350341796875,-0.1253662109375,0.012603759765625,0.02203369140625,-0.0213623046875,B,2,2026-08-23_09-51-49,2026-08-23
0.0,0.0041459369817578,0.1901528013582342,0.1474654377880184,0.36,1.0,1.0,1.0,1.0,1.0,0.0,0.53662109375,0.026123046875,-0.1214599609375,0.0115966796875,0.020111083984375,-0.01702880859375,B,2,2026-08-23_09-51-49,2026-08-23
0.0,0.0,0.1765704584040747,0.488479262672811,0.52,1.0,1.0,1.0,1.0,1.0,0.0,0.532470703125,0.015869140625,-0.113525390625,0.005523681640625,0.01898193359375,-0.019012451171875,B,2,2026-08-23_09-51-49,2026-08-23
0.0,0.0041459369817578,0.1307300509337861,0.2442396313364055,0.2,1.0,1.0,1.0,1.0,1.0,0.0,0.53271484375,0.02880859375,-0.1173095703125,-0.000885009765625,0.0264892578125,-0.022735595703125,B,2,2026-08-23_09-51-49,2026-08-23
0.0,0.0041459369817578,0.1409168081494057,0.4101382488479262,0.2,1.0,1.0,1.0,1.0,1.0,0.0,0.53662109375,0.039306640625,-0.1131591796875,0.004425048828125,0.02105712890625,-0.020721435546875,B,2,2026-08-23_09-51-49,2026-08-23
0.0,0.0041459369817578,0.1409168081494057,0.2350230414746544,0.4,1.0,1.0,1.0,1.0,1.0,0.0,0.53466796875,0.0400390625,-0.10498046875,0.015869140625,0.016845703125,-0.010589599609375,B,2,2026-08-23_09-51-49,2026-08-23
0.0,0.011608623548922,0.1867572156196944,0.3824884792626728,0.0,1.0,1.0,1.0,1.0,1.0,0.0,0.5384521484375,0.0338134765625,-0.1063232421875,0.022125244140625,0.0113525390625,-0.001678466796875,B,2,2026-08-23_09-51-49,2026-08-23
0.0,0.0,0.1409168081494057,0.4147465437788018,0.2,1.0,1.0,1.0,1.0,1.0,0.0,0.53173828125,0.0247802734375,-0.113037109375,0.016204833984375,0.01153564453125,-0.000213623046875,B,2,2026-08-23_09-51-49,2026-08-23
0.0,0.0024875621890547,0.1409168081494057,0.2027649769585253,0.22,1.0,1.0,1.0,1.0,1.0,0.0,0.5341796875,0.0225830078125,-0.10986328125,0.0074462890625,0.01190185546875,0.001068115234375,B,2,2026-08-23_09-51-49,2026-08-23
0.0,0.0049751243781094,0.1460101867572156,0.2534562211981567,0.46,1.0,1.0,1.0,1.0,1.0,0.0,0.53515625,0.0264892578125,-0.1014404296875,0.0166015625,0.005584716796875,0.011322021484375,B,2,2026-08-23_09-51-49,2026-08-23
0.0,0.0,0.1409168081494057,0.3456221198156682,0.36,1.0,1.0,1.0,1.0,1.0,0.0,0.528076171875,0.0198974609375,-0.0899658203125,0.02099609375,-0.005279541015625,0.019683837890625,B,2,2026-08-23_09-51-49,2026-08-23
0.0,0.011608623548922,0.2207130730050933,0.4423963133640553,0.98,1.0,1.0,1.0,1.0,1.0,0.0,0.5185546875,0.0208740234375,-0.09326171875,0.016632080078125,-0.004241943359375,0.0206298828125,B,2,2026-08-23_09-51-49,2026-08-23
0.0,0.0165837479270315,0.1850594227504244,0.391705069124424,0.0,1.0,1.0,1.0,1.0,1.0,0.0,0.53271484375,0.03515625,-0.079833984375,0.01483154296875,-0.0048828125,0.020751953125,B,2,2026-08-23_09-51-49,2026-08-23
0.0,0.0,0.0916808149405772,0.3456221198156682,0.1,1.0,1.0,1.0,1.0,1.0,0.0,0.5240478515625,0.0181884765625,-0.16943359375,-0.008514404296875,-0.0123291015625,0.0050048828125,B,3,2026-08-23_09-51-49,2026-08-23
0.0,0.0,0.1222410865874363,0.6820276497695853,0.34,1.0,1.0,1.0,1.0,1.0,0.0,0.529052734375,0.0052490234375,-0.17626953125,-0.008575439453125,-0.008331298828125,0.011444091796875,B,3,2026-08-23_09-51-49,2026-08-23
0.0,0.0,0.098471986417657,0.3870967741935484,0.1,1.0,1.0,1.0,1.0,1.0,0.0,0.5263671875,-0.000244140625,-0.1787109375,-0.01568603515625,-0.0111083984375,0.014923095703125,B,3,2026-08-23_09-51-49,2026-08-23
0.0,0.0,0.1290322580645161,0.5622119815668203,0.0,1.0,1.0,1.0,1.0,1.0,0.0,0.53125,-0.0067138671875,-0.171630859375,-0.029327392578125,-0.00823974609375,0.01666259765625,B,3,2026-08-23_09-51-49,2026-08-23
0.0,0.0,0.0950764006791171,0.3732718894009216,0.06,1.0,1.0,1.0,1.0,1.0,0.0,0.53857421875,-0.0040283203125,-0.1700439453125,-0.03900146484375,-0.0028076171875,0.013458251953125,B,3,2026-08-23_09-51-49,2026-08-23
0.0,0.0,0.0865874363327674,0.1290322580645161,0.12,1.0,1.0,1.0,1.0,1.0,0.0,0.5439453125,-0.005615234375,-0.1622314453125,-0.0391845703125,-0.007659912109375,0.00762939453125,B,3,2026-08-23_09-51-49,2026-08-23
0.0,0.0,0.1137521222410865,0.1612903225806451,0.3,1.0,1.0,1.0,1.0,1.0,0.0,0.544677734375,-0.00146484375,-0.154296875,-0.0458984375,-0.006500244140625,0.000396728515625,B,3,2026-08-23_09-51-49,2026-08-23
0.0,0.0,0.1137521222410865,0.2027649769585253,0.14,1.0,1.0,1.0,1.0,1.0,0.0,0.5438232421875,0.0023193359375,-0.15673828125,-0.05194091796875,0.000762939453125,-0.00445556640625,B,3,2026-08-23_09-51-49,2026-08-23
0.0,0.0,0.1086587436332767,0.3870967741935484,0.2,1.0,1.0,1.0,1.0,1.0,0.0,0.5445556640625,0.0045166015625,-0.156494140625,-0.05755615234375,0.004364013671875,-0.00927734375,B,3,2026-08-23_09-51-49,2026-08-23
0.0,0.0,0.1103565365025466,0.2073732718894009,0.1,1.0,1.0,1.0,1.0,1.0,0.0,0.539306640625,0.0078125,-0.1539306640625,-0.056915283203125,0.00299072265625,-0.01220703125,B,3,2026-08-23_09-51-49,2026-08-23
0.0,0.0,0.1426146010186757,0.3271889400921659,0.0,1.0,1.0,1.0,1.0,1.0,0.0,0.535400390625,0.0120849609375,-0.1492919921875,-0.0555419921875,0.008941650390625,-0.01263427734375,B,3,2026-08-23_09-51-49,2026-08-23
0.0,0.0,0.1460101867572156,0.4930875576036866,0.02,1.0,1.0,1.0,1.0,1.0,0.0,0.53662109375,0.01611328125,-0.13818359375,-0.04937744140625,0.017852783203125,-0.009735107421875,B,3,2026-08-23_09-51-49,2026-08-23
0.0,0.0,0.1494057724957555,0.336405529953917,0.36,1.0,1.0,1.0,1.0,1.0,0.0,0.5423583984375,0.0177001953125,-0.1337890625,-0.04559326171875,0.012420654296875,-0.003509521484375,B,3,2026-08-23_09-51-49,2026-08-23
0.0,0.0,0.1341256366723259,0.3686635944700461,0.2,1.0,1.0,1.0,1.0,1.0,0.0,0.5360107421875,0.015869140625,-0.135986328125,-0.04681396484375,0.001861572265625,0.0054931640625,B,3,2026-08-23_09-51-49,2026-08-23
0.0,0.0,0.1409168081494057,0.4193548387096774,0.18,1.0,1.0,1.0,1.0,1.0,0.0,0.537841796875,0.0135498046875,-0.1298828125,-0.047637939453125,0.003082275390625,0.01019287109375,B,3,2026-08-23_09-51-49,2026-08-23
0.0,0.0,0.1137521222410865,0.2304147465437788,0.24,1.0,1.0,1.0,1.0,1.0,0.0,0.5369873046875,0.0091552734375,-0.1387939453125,-0.046478271484375,0.003753662109375,0.006561279296875,B,3,2026-08-23_09-51-49,2026-08-23
0.0,0.0,0.1375212224108658,0.064516129032258,0.3,1.0,1.0,1.0,1.0,1.0,0.0,0.5389404296875,0.0172119140625,-0.13818359375,-0.04498291015625,0.00042724609375,0.001434326171875,B,3,2026-08-23_09-51-49,2026-08-23
0.0,0.0,0.1511035653650254,0.0967741935483871,0.22,1.0,1.0,1.0,1.0,1.0,0.0,0.5389404296875,0.0228271484375,-0.1441650390625,-0.036041259765625,0.0010986328125,0.0045166015625,B,3,2026-08-23_09-51-49,2026-08-23
0.0,0.0,0.1307300509337861,0.2626728110599078,0.28,1.0,1.0,1.0,1.0,1.0,0.0,0.541259765625,0.020263671875,-0.1370849609375,-0.029052734375,0.004638671875,0.013214111328125,B,3,2026-08-23_09-51-49,2026-08-23
0.0,0.0,0.1137521222410865,0.216589861751152,0.2,1.0,1.0,1.0,1.0,1.0,0.0,0.5465087890625,0.01123046875,-0.132568359375,-0.03436279296875,0.0045166015625,0.0159912109375,B,3,2026-08-23_09-51-49,2026-08-23
0.0,0.0,0.1528013582342954,0.1751152073732718,0.0,1.0,1.0,1.0,1.0,1.0,0.0,0.5450439453125,0.00927734375,-0.137939453125,-0.037750244140625,0.001617431640625,0.015228271484375,B,3,2026-08-23_09-51-49,2026-08-23
0.0,0.0,0.1409168081494057,0.216589861751152,0.04,1.0,1.0,1.0,1.0,1.0,0.0,0.542724609375,0.0054931640625,-0.1470947265625,-0.038177490234375,0.0064697265625,0.01153564453125,B,3,2026-08-23_09-51-49,2026-08-23
0.0,0.0,0.1375212224108658,0.2350230414746544,0.5,1.0,1.0,1.0,1.0,1.0,0.0,0.5457763671875,0.0096435546875,-0.147705078125,-0.030548095703125,0.008880615234375,0.009002685546875,B,3,2026-08-23_09-51-49,2026-08-23
0.0,0.0,0.1069609507640067,0.2811059907834101,0.3,1.0,1.0,1.0,1.0,1.0,0.0,0.540283203125,0.00732421875,-0.1480712890625,-0.023590087890625,0.00732421875,0.00830078125,B,3,2026-08-23_09-51-49,2026-08-23
0.0,0.0,0.1409168081494057,0.032258064516129,0.0,1.0,1.0,1.0,1.0,1.0,0.0,0.5462646484375,-0.0030517578125,-0.1468505859375,-0.026214599609375,-0.009246826171875,0.010467529296875,B,3,2026-08-23_09-51-49,2026-08-23
0.0,0.0,0.1392190152801358,0.1198156682027649,0.32,1.0,1.0,1.0,1.0,1.0,0.0,0.5423583984375,-0.014892578125,-0.1414794921875,-0.03851318359375,-0.03411865234375,0.011566162109375,B,3,2026-08-23_09-51-49,2026-08-23
0.0,0.0,0.1850594227504244,0.1474654377880184,0.0,1.0,1.0,1.0,1.0,1.0,0.0,0.5460205078125,-0.0240478515625,-0.148193359375,-0.052398681640625,-0.052093505859375,0.008148193359375,B,3,2026-08-23_09-51-49,2026-08-23
0.0,0.0,0.1765704584040747,0.1152073732718894,0.18,1.0,1.0,1.0,1.0,1.0,0.0,0.54443359375,-0.024169921875,-0.1480712890625,-0.062347412109375,-0.049896240234375,-0.005584716796875,B,3,2026-08-23_09-51-49,2026-08-23
0.0,0.0,0.1375212224108658,0.0599078341013824,0.14,1.0,1.0,1.0,1.0,1.0,0.0,0.540771484375,-0.006591796875,-0.1630859375,-0.045806884765625,-0.02978515625,-0.0235595703125,B,3,2026-08-23_09-51-49,2026-08-23
0.0,0.0,0.1578947368421052,0.0,0.0,1.0,1.0,1.0,1.0,1.0,0.0,0.5399169921875,0.007080078125,-0.1485595703125,-0.02099609375,-0.0048828125,-0.0379638671875,B,3,2026-08-23_09-51-49,2026-08-23
0.0,0.0,0.1137521222410865,0.0,0.1,1.0,1.0,1.0,1.0,1.0,0.0,0.5452880859375,0.015625,-0.1351318359375,-0.005523681640625,0.009796142578125,-0.0435791015625,B,3,2026-08-23_09-51-49,2026-08-23
0.0,0.0,0.1358234295415959,0.4470046082949309,0.2,1.0,1.0,1.0,1.0,1.0,0.0,0.5491943359375,0.0262451171875,-0.1217041015625,-0.01348876953125,0.005615234375,-0.043487548828125,B,3,2026-08-23_09-51-49,2026-08-23
0.0,0.0,0.1154499151103565,0.0,0.42,1.0,1.0,1.0,1.0,1.0,0.0,0.5439453125,0.041015625,-0.1219482421875,-0.029998779296875,-0.00592041015625,-0.03558349609375,B,3,2026-08-23_09-51-49,2026-08-23
0.0,0.0,0.1171477079796264,0.0,0.34,1.0,1.0,1.0,1.0,1.0,0.0,0.537353515625,0.0582275390625,-0.121337890625,-0.0321044921875,-0.0062255859375,-0.022857666015625,B,3,2026-08-23_09-51-49,2026-08-23
0.0,0.0,0.1561969439728353,0.0,0.0,1.0,1.0,1.0,1.0,1.0,0.0,0.5345458984375,0.0550537109375,-0.1275634765625,-0.0211181640625,-0.00726318359375,-0.014739990234375,B,3,2026-08-23_09-51-49,2026-08-23
0.0,0.0,0.1443123938879456,1.0,0.26,1.0,1.0,1.0,1.0,1.0,0.0,0.5321044921875,0.04345703125,-0.1365966796875,-0.00732421875,-0.011077880859375,-0.01275634765625,B,3,2026-08-23_09-51-49,2026-08-23
0.0,0.0,0.1443123938879456,0.9815668202764976,0.0,1.0,1.0,1.0,1.0,1.0,0.0,0.528564453125,0.0333251953125,-0.137451171875,-0.001739501953125,-0.01336669921875,-0.009490966796875,B,3,2026-08-23_09-51-49,2026-08-23
0.0,0.0,0.1103565365025466,0.6175115207373272,0.26,1.0,1.0,1.0,1.0,1.0,0.0,0.529541015625,0.031005859375,-0.148193359375,-0.009490966796875,-0.0133056640625,-0.0048828125,B,3,2026-08-23_09-51-49,2026-08-23
0.0,0.0,0.1069609507640067,0.5161290322580645,0.02,1.0,1.0,1.0,1.0,1.0,0.0,0.5267333984375,0.030029296875,-0.15673828125,-0.01361083984375,-0.0191650390625,0.007720947265625,B,3,2026-08-23_09-51-49,2026-08-23
0.0,0.0,0.1460101867572156,0.3087557603686636,0.2,1.0,1.0,1.0,1.0,1.0,0.0,0.5260009765625,0.0078125,-0.165771484375,-0.007568359375,-0.018280029296875,0.01513671875,B,3,2026-08-23_09-51-49,2026-08-23
0.0,0.0165837479270315,0.1833616298811545,1.0,1.0,1.0,1.0,1.0,1.0,1.0,0.0,0.536376953125,-0.0133056640625,-0.1478271484375,-0.029266357421875,0.00164794921875,-0.0103759765625,B,4,2026-08-23_09-51-49,2026-08-23
0.0,0.0066334991708126,0.1205432937181663,1.0,1.0,1.0,1.0,1.0,1.0,1.0,0.0,0.5428466796875,-0.004638671875,-0.1475830078125,-0.033599853515625,-0.00250244140625,-0.000457763671875,B,4,2026-08-23_09-51-49,2026-08-23
0.0,0.0182421227197346,0.1409168081494057,1.0,0.18,1.0,1.0,1.0,1.0,1.0,0.0,0.5430908203125,-0.0076904296875,-0.143310546875,-0.027099609375,-0.01171875,0.006988525390625,B,4,2026-08-23_09-51-49,2026-08-23
0.0,0.0273631840796019,0.2224108658743633,1.0,0.0,1.0,1.0,1.0,1.0,1.0,0.0,0.531005859375,-0.0159912109375,-0.1434326171875,-0.029388427734375,-0.01214599609375,0.0030517578125,B,4,2026-08-23_09-51-49,2026-08-23
0.0,0.005804311774461,0.1460101867572156,1.0,0.98,1.0,1.0,1.0,1.0,1.0,0.0,0.5340576171875,-0.0194091796875,-0.1527099609375,-0.028411865234375,0.011810302734375,-0.001495361328125,B,4,2026-08-23_09-51-49,2026-08-23
0.0,0.044776119402985,0.2750424448217317,1.0,0.0,1.0,1.0,1.0,1.0,1.0,0.0,0.541748046875,-0.0147705078125,-0.1473388671875,-0.018402099609375,0.015106201171875,0.001617431640625,B,4,2026-08-23_09-51-49,2026-08-23
0.0,0.0364842454394693,0.2512733446519524,1.0,0.34,1.0,1.0,1.0,1.0,1.0,0.0,0.5364990234375,-0.0198974609375,-0.14892578125,-0.016448974609375,0.01171875,0.00677490234375,B,4,2026-08-23_09-51-49,2026-08-23
0.0,0.0339966832504145,0.2376910016977928,1.0,0.0,1.0,1.0,1.0,1.0,1.0,0.0,0.5380859375,-0.0264892578125,-0.1551513671875,-0.031341552734375,0.009613037109375,0.001800537109375,B,4,2026-08-23_09-51-49,2026-08-23
0.0,0.0248756218905472,0.2037351443123939,1.0,0.26,1.0,1.0,1.0,1.0,1.0,0.0,0.5347900390625,-0.0245361328125,-0.1524658203125,-0.033905029296875,0.004669189453125,-0.002960205078125,B,4,2026-08-23_09-51-49,2026-08-23
0.0,0.0298507462686567,0.2139219015280135,1.0,0.0,1.0,1.0,1.0,1.0,1.0,0.0,0.534912109375,-0.0150146484375,-0.1505126953125,-0.03167724609375,0.0093994140625,-0.010589599609375,B,4,2026-08-23_09-51-49,2026-08-23
0.0,0.0431177446102819,0.2495755517826825,1.0,0.0,1.0,1.0,1.0,1.0,1.0,0.0,0.542724609375,-0.005859375,-0.1458740234375,-0.023162841796875,0.002838134765625,-0.01226806640625,B,4,2026-08-23_09-51-49,2026-08-23
0.0,0.0381426202321724,0.2427843803056027,1.0,1.0,1.0,1.0,1.0,1.0,1.0,0.0,0.5521240234375,-0.00732421875,-0.151123046875,-0.012603759765625,-0.0081787109375,-0.004547119140625,B,4,2026-08-23_09-51-49,2026-08-23
0.0,0.0232172470978441,0.2122241086587436,1.0,0.0,1.0,1.0,1.0,1.0,1.0,0.0,0.5435791015625,-0.0211181640625,-0.1539306640625,-0.013336181640625,-0.01318359375,-0.002471923828125,B,4,2026-08-23_09-51-49,2026-08-23
0.0,0.0381426202321724,0.2495755517826825,1.0,0.0,1.0,1.0,1.0,1.0,1.0,0.0,0.5262451171875,-0.0245361328125,-0.1641845703125,-0.035858154296875,-0.001251220703125,-0.0086669921875,B,4,2026-08-23_09-51-49,2026-08-23
0.0,0.0190713101160862,0.232597623089983,1.0,0.98,1.0,1.0,1.0,1.0,1.0,0.0,0.525146484375,-0.0126953125,-0.1610107421875,-0.050445556640625,0.020660400390625,-0.01190185546875,B,4,2026-08-23_09-51-49,2026-08-23
0.0,0.0182421227197346,0.2020373514431239,1.0,0.98,1.0,1.0,1.0,1.0,1.0,0.0,0.5357666015625,0.001708984375,-0.13623046875,-0.0386962890625,0.036407470703125,-0.009063720703125,B,4,2026-08-23_09-51-49,2026-08-23
0.0,0.0323383084577114,0.2495755517826825,1.0,0.1,1.0,1.0,1.0,1.0,1.0,0.0,0.54541015625,0.0006103515625,-0.113525390625,-0.016387939453125,0.0455322265625,-0.00518798828125,B,4,2026-08-23_09-51-49,2026-08-23
0.0,0.0248756218905472,0.1952461799660441,1.0,0.04,1.0,1.0,1.0,1.0,1.0,0.0,0.557861328125,0.0010986328125,-0.103271484375,-0.007843017578125,0.03741455078125,0.003265380859375,B,4,2026-08-23_09-51-49,2026-08-23
0.0,0.0041459369817578,0.1748726655348047,1.0,0.54,1.0,1.0,1.0,1.0,1.0,0.0,0.55615234375,-0.001953125,-0.0943603515625,-0.003875732421875,0.019500732421875,0.0029296875,B,4,2026-08-23_09-51-49,2026-08-23
0.0,0.0165837479270315,0.1629881154499151,1.0,0.0,1.0,1.0,1.0,1.0,1.0,0.0,0.5506591796875,-0.0050048828125,-0.0985107421875,-0.010040283203125,0.0086669921875,-0.0013427734375,B,4,2026-08-23_09-51-49,2026-08-23
0.0,0.0306799336650082,0.2224108658743633,1.0,0.0,1.0,1.0,1.0,1.0,1.0,0.0,0.5484619140625,-0.0037841796875,-0.1109619140625,0.00091552734375,-0.00030517578125,-0.005950927734375,B,4,2026-08-23_09-51-49,2026-08-23
0.0,0.0099502487562189,0.1409168081494057,1.0,0.0,1.0,1.0,1.0,1.0,1.0,0.0,0.5408935546875,-0.00830078125,-0.124267578125,0.00579833984375,-0.0028076171875,-0.01300048828125,B,4,2026-08-23_09-51-49,2026-08-23
0.0,0.0215588723051409,0.1850594227504244,1.0,0.0,1.0,1.0,1.0,1.0,1.0,0.0,0.5372314453125,-0.0054931640625,-0.1436767578125,0.003448486328125,0.002105712890625,-0.014862060546875,B,4,2026-08-23_09-51-49,2026-08-23
0.0,0.0149253731343283,0.1731748726655348,1.0,0.36,1.0,1.0,1.0,1.0,1.0,0.0,0.54150390625,0.0030517578125,-0.1365966796875,0.002899169921875,0.0037841796875,-0.0086669921875,B,4,2026-08-23_09-51-49,2026-08-23
0.0,0.017412935323383,0.1969439728353141,1.0,1.0,1.0,1.0,1.0,1.0,1.0,0.0,0.54443359375,-0.003662109375,-0.12744140625,0.002685546875,0.002227783203125,-0.0020751953125,B,4,2026-08-23_09-51-49,2026-08-23
0.0,0.0091210613598673,0.1799660441426146,1.0,0.34,1.0,1.0,1.0,1.0,1.0,0.0,0.546875,-0.0115966796875,-0.119873046875,-0.000701904296875,-0.00323486328125,0.001190185546875,B,4,2026-08-23_09-51-49,2026-08-23
0.0,0.0149253731343283,0.1426146010186757,1.0,1.0,1.0,1.0,1.0,1.0,1.0,0.0,0.548095703125,-0.023193359375,-0.119873046875,-0.010986328125,-0.02032470703125,-0.001190185546875,B,4,2026-08-23_09-51-49,2026-08-23
0.0,0.0298507462686567,0.1952461799660441,1.0,0.0,1.0,1.0,1.0,1.0,1.0,0.0,0.5447998046875,-0.0220947265625,-0.12353515625,-0.01922607421875,-0.034576416015625,-0.0006103515625,B,4,2026-08-23_09-51-49,2026-08-23
0.0,0.0099502487562189,0.1697792869269949,1.0,0.06,1.0,1.0,1.0,1.0,1.0,0.0,0.5423583984375,-0.02197265625,-0.12646484375,-0.026763916015625,-0.029815673828125,0.00067138671875,B,4,2026-08-23_09-51-49,2026-08-23
0.0,0.0281923714759535,0.2105263157894736,1.0,0.98,1.0,1.0,1.0,1.0,1.0,0.0,0.550048828125,-0.0157470703125,-0.13525390625,-0.025421142578125,-0.0263671875,-0.001373291015625,B,4,2026-08-23_09-51-49,2026-08-23
0.0,0.0124378109452736,0.200339558573854,1.0,0.0,1.0,1.0,1.0,1.0,1.0,0.0,0.55322265625,-0.0091552734375,-0.1409912109375,-0.016265869140625,-0.03363037109375,-0.00372314453125,B,4,2026-08-23_09-51-49,2026-08-23
0.0,0.011608623548922,0.1969439728353141,1.0,0.98,1.0,1.0,1.0,1.0,1.0,0.0,0.540771484375,-0.0067138671875,-0.139892578125,-0.016082763671875,-0.036712646484375,-0.010101318359375,B,4,2026-08-23_09-51-49,2026-08-23
0.0,0.017412935323383,0.1952461799660441,1.0,0.0,1.0,1.0,1.0,1.0,1.0,0.0,0.53515625,-0.000732421875,-0.1429443359375,-0.016754150390625,-0.034088134765625,-0.015625,B,4,2026-08-23_09-51-49,2026-08-23
0.0,0.0182421227197346,0.1952461799660441,1.0,0.24,1.0,1.0,1.0,1.0,1.0,0.0,0.5361328125,0.0103759765625,-0.139892578125,-0.0181884765625,-0.03350830078125,-0.015045166015625,B,4,2026-08-23_09-51-49,2026-08-23
0.0,0.0199004975124378,0.2173174872665534,1.0,0.98,1.0,1.0,1.0,1.0,1.0,0.0,0.5313720703125,0.017822265625,-0.1402587890625,-0.012725830078125,-0.025299072265625,-0.00738525390625,B,4,2026-08-23_09-51-49,2026-08-23
0.0,0.005804311774461,0.2190152801358234,1.0,0.28,1.0,1.0,1.0,1.0,1.0,0.0,0.53173828125,0.0078125,-0.140869140625,-0.0089111328125,-0.012237548828125,-0.001312255859375,B,4,2026-08-23_09-51-49,2026-08-23
0.0,0.011608623548922,0.1850594227504244,1.0,0.0,1.0,1.0,1.0,1.0,1.0,0.0,0.537109375,0.0081787109375,-0.13623046875,-0.013275146484375,-0.011199951171875,0.001922607421875,B,4,2026-08-23_09-51-49,2026-08-23
0.0,0.0215588723051409,0.2190152801358234,1.0,0.02,1.0,1.0,1.0,1.0,1.0,0.0,0.5362548828125,-0.0023193359375,-0.137939453125,-0.02288818359375,-0.01251220703125,0.001007080078125,B,4,2026-08-23_09-51-49,2026-08-23
0.0,0.005804311774461,0.1561969439728353,1.0,0.98,1.0,1.0,1.0,1.0,1.0,0.0,0.537109375,0.0018310546875,-0.135986328125,-0.030181884765625,-0.007568359375,0.002593994140625,B,4,2026-08-23_09-51-49,2026-08-23
0.0,0.0406301824212272,0.2495755517826825,1.0,0.04,1.0,1.0,1.0,1.0,1.0,0.0,0.534912109375,0.002197265625,-0.1387939453125,-0.027801513671875,-0.009307861328125,0.001434326171875,B,4,2026-08-23_09-51-49,2026-08-23
0.7136612021857923,0.8092868988391376,0.865874363327674,0.7096774193548387,0.06,1.0,1.0,1.0,1.0,1.0,0.0,0.4979248046875,-0.120361328125,-0.1851806640625,-0.029632568359375,-0.013702392578125,-0.005401611328125,C,0,2026-08-23_09-51-49,2026-08-23
0.7136612021857923,0.8043117744610282,0.8488964346349746,0.6820276497695853,0.12,1.0,1.0,1.0,1.0,1.0,0.0,0.498291015625,-0.1077880859375,-0.1859130859375,-0.03662109375,-0.008087158203125,0.00244140625,C,0,2026-08-23_09-51-49,2026-08-23
0.7027322404371584,0.7835820895522388,0.8132427843803056,0.7788018433179723,0.08,1.0,1.0,1.0,1.0,1.0,0.0,0.504150390625,-0.1097412109375,-0.1805419921875,-0.036163330078125,-0.0050048828125,0.008209228515625,C,0,2026-08-23_09-51-49,2026-08-23
0.7366120218579235,0.8001658374792703,0.8743633276740238,0.8617511520737328,0.38,1.0,1.0,1.0,1.0,1.0,0.0,0.5089111328125,-0.110595703125,-0.1766357421875,-0.033294677734375,-0.001983642578125,0.006744384765625,C,0,2026-08-23_09-51-49,2026-08-23
0.7234972677595628,0.8043117744610282,0.8488964346349746,0.5898617511520737,0.3,1.0,1.0,1.0,1.0,1.0,0.0,0.5137939453125,-0.1082763671875,-0.1790771484375,-0.0245361328125,0.0035400390625,0.001434326171875,C,0,2026-08-23_09-51-49,2026-08-23
0.7027322404371584,0.7960199004975125,0.8726655348047538,0.7050691244239631,0.14,1.0,1.0,1.0,1.0,1.0,0.0,0.51953125,-0.1077880859375,-0.1766357421875,-0.018524169921875,0.009857177734375,-0.00457763671875,C,0,2026-08-23_09-51-49,2026-08-23
0.6994535519125683,0.8001658374792703,0.8471986417657046,0.6728110599078341,0.0,1.0,1.0,1.0,1.0,1.0,0.0,0.519775390625,-0.111328125,-0.17529296875,-0.0162353515625,0.010650634765625,-0.0054931640625,C,0,2026-08-23_09-51-49,2026-08-23
0.7234972677595628,0.8084577114427861,0.9015280135823428,0.815668202764977,0.0,1.0,1.0,1.0,1.0,1.0,0.0,0.52392578125,-0.1136474609375,-0.165283203125,-0.015899658203125,0.0096435546875,-0.008056640625,C,0,2026-08-23_09-51-49,2026-08-23
0.7005464480874317,0.8117744610281924,0.8573853989813243,0.7050691244239631,0.04,1.0,1.0,1.0,1.0,1.0,0.0,0.5255126953125,-0.1112060546875,-0.1632080078125,-0.018646240234375,0.010650634765625,-0.0079345703125,C,0,2026-08-23_09-51-49,2026-08-23
0.7081967213114754,0.8101160862354893,0.8488964346349746,0.8847926267281107,0.38,1.0,1.0,1.0,1.0,1.0,0.0,0.5255126953125,-0.1099853515625,-0.1529541015625,-0.0167236328125,0.013427734375,-0.007537841796875,C,0,2026-08-23_09-51-49,2026-08-23
0.7202185792349727,0.8043117744610282,0.8743633276740238,0.8847926267281107,0.12,1.0,1.0,1.0,1.0,1.0,0.0,0.5323486328125,-0.1063232421875,-0.15283203125,-0.012939453125,0.009185791015625,-0.01165771484375,C,0,2026-08-23_09-51-49,2026-08-23
0.7125683060109289,0.7844112769485904,0.8471986417657046,0.7557603686635944,0.32,1.0,1.0,1.0,1.0,1.0,0.0,0.5264892578125,-0.1026611328125,-0.15087890625,-0.010650634765625,0.0050048828125,-0.015045166015625,C,0,2026-08-23_09-51-49,2026-08-23
0.7366120218579235,0.8084577114427861,0.8692699490662139,0.5069124423963134,0.26,1.0,1.0,1.0,1.0,1.0,0.0,0.52685546875,-0.1026611328125,-0.1461181640625,-0.00299072265625,0.0003662109375,-0.016876220703125,C,0,2026-08-23_09-51-49,2026-08-23
0.7289617486338797,0.8009950248756219,0.8930390492359932,0.4285714285714285,0.18,1.0,1.0,1.0,1.0,1.0,0.0,0.529052734375,-0.107666015625,-0.1456298828125,-0.00042724609375,-0.011322021484375,-0.01556396484375,C,0,2026-08-23_09-51-49,2026-08-23
0.7377049180327869,0.8084577114427861,0.8556876061120543,0.7373271889400922,0.0,1.0,1.0,1.0,1.0,1.0,0.0,0.52783203125,-0.1146240234375,-0.1558837890625,-0.008453369140625,-0.02484130859375,-0.0123291015625,C,0,2026-08-23_09-51-49,2026-08-23
0.7333333333333333,0.8051409618573798,0.8505942275042445,0.7373271889400922,0.12,1.0,1.0,1.0,1.0,1.0,0.0,0.5279541015625,-0.1158447265625,-0.1639404296875,-0.01312255859375,-0.02850341796875,-0.006744384765625,C,0,2026-08-23_09-51-49,2026-08-23
0.7300546448087432,0.8059701492537313,0.8556876061120543,0.8986175115207373,0.24,1.0,1.0,1.0,1.0,1.0,0.0,0.522705078125,-0.1170654296875,-0.1669921875,-0.01690673828125,-0.027984619140625,-0.004058837890625,C,0,2026-08-23_09-51-49,2026-08-23
0.7158469945355191,0.7902155887230514,0.8522920203735145,0.7373271889400922,0.22,1.0,1.0,1.0,1.0,1.0,0.0,0.51953125,-0.12451171875,-0.16650390625,-0.026031494140625,-0.027862548828125,-0.0059814453125,C,0,2026-08-23_09-51-49,2026-08-23
0.7234972677595628,0.7951907131011609,0.8471986417657046,0.5391705069124424,0.3,1.0,1.0,1.0,1.0,1.0,0.0,0.5211181640625,-0.1220703125,-0.1728515625,-0.034393310546875,-0.028961181640625,-0.00860595703125,C,0,2026-08-23_09-51-49,2026-08-23
0.7486338797814208,0.8225538971807629,0.8947368421052632,0.5714285714285714,0.26,1.0,1.0,1.0,1.0,1.0,0.0,0.5216064453125,-0.1146240234375,-0.1678466796875,-0.0274658203125,-0.030914306640625,-0.01806640625,C,0,2026-08-23_09-51-49,2026-08-23
0.7486338797814208,0.8117744610281924,0.8709677419354839,0.6082949308755761,0.1,1.0,1.0,1.0,1.0,1.0,0.0,0.5242919921875,-0.116943359375,-0.1756591796875,-0.017852783203125,-0.036041259765625,-0.0401611328125,C,0,2026-08-23_09-51-49,2026-08-23
0.7169398907103826,0.8009950248756219,0.8573853989813243,0.7880184331797235,0.0,1.0,1.0,1.0,1.0,1.0,0.0,0.5155029296875,-0.2205810546875,0.029052734375,-0.035308837890625,-0.01568603515625,-0.074951171875,C,0,2026-08-23_09-51-49,2026-08-23
0.7169398907103826,0.7910447761194029,0.8183361629881154,0.5944700460829493,0.34,1.0,1.0,1.0,1.0,1.0,0.0,0.517578125,-0.09814453125,-0.1741943359375,0.012725830078125,-0.046630859375,-0.062469482421875,C,0,2026-08-23_09-51-49,2026-08-23
0.7377049180327869,0.8009950248756219,0.8743633276740238,0.7373271889400922,0.18,1.0,1.0,1.0,1.0,1.0,0.0,0.5179443359375,-0.0941162109375,-0.1854248046875,0.0152587890625,-0.0377197265625,-0.050201416015625,C,0,2026-08-23_09-51-49,2026-08-23
0.7366120218579235,0.8250414593698175,0.8862478777589134,0.663594470046083,0.3,1.0,1.0,1.0,1.0,1.0,0.0,0.5157470703125,-0.08984375,-0.180908203125,-0.004058837890625,-0.025970458984375,-0.031768798828125,C,0,2026-08-23_09-51-49,2026-08-23
0.7387978142076502,0.7943615257048093,0.9100169779286928,0.7050691244239631,0.0,1.0,1.0,1.0,1.0,1.0,0.0,0.5223388671875,-0.08544921875,-0.1781005859375,-0.034454345703125,-0.02099609375,-0.020721435546875,C,0,2026-08-23_09-51-49,2026-08-23
0.7169398907103826,0.7976782752902156,0.8743633276740238,0.7972350230414746,0.1,1.0,1.0,1.0,1.0,1.0,0.0,0.5201416015625,-0.06982421875,-0.1805419921875,-0.0545654296875,-0.017578125,-0.006134033203125,C,0,2026-08-23_09-51-49,2026-08-23
0.7387978142076502,0.7951907131011609,0.8828522920203735,0.8110599078341014,0.12,1.0,1.0,1.0,1.0,1.0,0.0,0.52734375,-0.0595703125,-0.1763916015625,-0.04986572265625,-0.02862548828125,-0.003326416015625,C,0,2026-08-23_09-51-49,2026-08-23
0.7486338797814208,0.8018242122719734,0.9032258064516128,0.391705069124424,0.18,1.0,1.0,1.0,1.0,1.0,0.0,0.5223388671875,-0.0579833984375,-0.17919921875,-0.031982421875,-0.0428466796875,-0.008819580078125,C,0,2026-08-23_09-51-49,2026-08-23
0.7475409836065574,0.8101160862354893,0.8692699490662139,0.7880184331797235,0.0,1.0,1.0,1.0,1.0,1.0,0.0,0.515869140625,-0.06591796875,-0.1822509765625,-0.02337646484375,-0.04541015625,-0.011138916015625,C,0,2026-08-23_09-51-49,2026-08-23
0.7475409836065574,0.8217247097844113,0.8709677419354839,0.576036866359447,0.14,1.0,1.0,1.0,1.0,1.0,0.0,0.5172119140625,-0.0638427734375,-0.1798095703125,-0.006683349609375,-0.0355224609375,-0.011505126953125,C,0,2026-08-23_09-51-49,2026-08-23
0.740983606557377,0.7985074626865671,0.8471986417657046,0.6359447004608295,0.14,1.0,1.0,1.0,1.0,1.0,0.0,0.5177001953125,-0.07666015625,-0.183837890625,0.00213623046875,-0.03802490234375,-0.010101318359375,C,0,2026-08-23_09-51-49,2026-08-23
0.7387978142076502,0.7993366500829188,0.8624787775891342,0.8847926267281107,0.1,1.0,1.0,1.0,1.0,1.0,0.0,0.5172119140625,-0.07373046875,-0.182861328125,0.002593994140625,-0.051910400390625,-0.001007080078125,C,0,2026-08-23_09-51-49,2026-08-23
0.7311475409836066,0.8175787728026535,0.9100169779286928,0.6082949308755761,0.36,1.0,1.0,1.0,1.0,1.0,0.0,0.516845703125,-0.081787109375,-0.1817626953125,-0.00152587890625,-0.052032470703125,0.008697509765625,C,0,2026-08-23_09-51-49,2026-08-23
0.7245901639344262,0.7943615257048093,0.8641765704584041,0.6728110599078341,0.22,1.0,1.0,1.0,1.0,1.0,0.0,0.5115966796875,-0.092041015625,-0.18701171875,-0.018707275390625,-0.040252685546875,0.01483154296875,C,0,2026-08-23_09-51-49,2026-08-23
0.7562841530054645,0.7985074626865671,0.8217317487266553,0.4654377880184331,0.28,1.0,1.0,1.0,1.0,1.0,0.0,0.512451171875,-0.09033203125,-0.18505859375,-0.02166748046875,-0.040008544921875,0.0174560546875,C,0,2026-08-23_09-51-49,2026-08-23
0.7366120218579235,0.8018242122719734,0.8285229202037352,0.8847926267281107,0.3,1.0,1.0,1.0,1.0,1.0,0.0,0.5052490234375,-0.0933837890625,-0.1907958984375,-0.01318359375,-0.044891357421875,0.0196533203125,C,0,2026-08-23_09-51-49,2026-08-23
0.7234972677595628,0.8009950248756219,0.8488964346349746,0.6866359447004609,0.0,1.0,1.0,1.0,1.0,1.0,0.0,0.5040283203125,-0.09716796875,-0.190185546875,-0.0037841796875,-0.0531005859375,0.010101318359375,C,0,2026-08-23_09-51-49,2026-08-23
0.7060109289617487,0.7885572139303483,0.8234295415959253,0.8387096774193549,0.0,1.0,1.0,1.0,1.0,1.0,0.0,0.49951171875,-0.0906982421875,-0.1878662109375,0.0125732421875,-0.082489013671875,-0.004241943359375,C,0,2026-08-23_09-51-49,2026-08-23
0.7508196721311475,0.824212271973466,0.8981324278438031,0.5483870967741935,0.22,1.0,1.0,1.0,1.0,1.0,0.0,0.511962890625,-0.0928955078125,-0.2041015625,0.022064208984375,-0.080413818359375,-0.013885498046875,C,0,2026-08-23_09-51-49,2026-08-23
0.6852459016393443,0.7330016583747927,0.8370118845500849,0.7235023041474654,0.24,1.0,1.0,1.0,1.0,1.0,0.0,0.4849853515625,-0.245361328125,-0.1441650390625,-0.019195556640625,-0.0167236328125,0.017181396484375,C,1,2026-08-23_09-51-49,2026-08-23
0.6775956284153005,0.7122719734660033,0.8421052631578947,0.8064516129032258,0.22,1.0,1.0,1.0,1.0,1.0,0.0,0.48681640625,-0.2449951171875,-0.1396484375,-0.015106201171875,-0.019622802734375,0.0147705078125,C,1,2026-08-23_09-51-49,2026-08-23
0.6841530054644809,0.7131011608623549,0.8098471986417657,0.9262672811059908,0.22,1.0,1.0,1.0,1.0,1.0,0.0,0.494873046875,-0.2391357421875,-0.1331787109375,-0.026763916015625,-0.02056884765625,0.00927734375,C,1,2026-08-23_09-51-49,2026-08-23
0.6633879781420765,0.7106135986733002,0.8387096774193549,0.4423963133640553,0.18,1.0,1.0,1.0,1.0,1.0,0.0,0.498291015625,-0.2208251953125,-0.142333984375,-0.030548095703125,-0.029510498046875,0.003662109375,C,1,2026-08-23_09-51-49,2026-08-23
0.6885245901639344,0.7072968490878938,0.8438030560271647,0.5806451612903226,0.26,1.0,1.0,1.0,1.0,1.0,0.0,0.501220703125,-0.21533203125,-0.1424560546875,-0.027374267578125,-0.03546142578125,0.002197265625,C,1,2026-08-23_09-51-49,2026-08-23
0.6830601092896175,0.7255389718076285,0.8590831918505942,0.7880184331797235,0.46,1.0,1.0,1.0,1.0,1.0,0.0,0.503662109375,-0.21484375,-0.144775390625,-0.035125732421875,-0.025848388671875,-0.001922607421875,C,1,2026-08-23_09-51-49,2026-08-23
0.6841530054644809,0.7222222222222222,0.8183361629881154,1.0,0.3,1.0,1.0,1.0,1.0,1.0,0.0,0.508544921875,-0.2105712890625,-0.1328125,-0.02685546875,-0.022705078125,-0.011138916015625,C,1,2026-08-23_09-51-49,2026-08-23
0.6841530054644809,0.7131011608623549,0.8505942275042445,0.7603686635944701,0.0,1.0,1.0,1.0,1.0,1.0,0.0,0.5057373046875,-0.216064453125,-0.131103515625,-0.02215576171875,-0.027862548828125,-0.024932861328125,C,1,2026-08-23_09-51-49,2026-08-23
0.6972677595628415,0.7205638474295191,0.8285229202037352,0.912442396313364,0.0,1.0,1.0,1.0,1.0,1.0,0.0,0.4991455078125,-0.2119140625,-0.1290283203125,-0.022613525390625,-0.02520751953125,-0.0325927734375,C,1,2026-08-23_09-51-49,2026-08-23
0.6852459016393443,0.7230514096185738,0.8675721561969439,0.9032258064516128,0.38,1.0,1.0,1.0,1.0,1.0,0.0,0.495361328125,-0.2135009765625,-0.1263427734375,-0.0113525390625,-0.02276611328125,-0.041015625,C,1,2026-08-23_09-51-49,2026-08-23
0.6612021857923497,0.7205638474295191,0.8251273344651953,0.9032258064516128,0.28,1.0,1.0,1.0,1.0,1.0,0.0,0.4942626953125,-0.2169189453125,-0.134765625,-0.019744873046875,-0.026336669921875,-0.038482666015625,C,1,2026-08-23_09-51-49,2026-08-23
0.6743169398907104,0.7338308457711443,0.8166383701188455,0.6451612903225806,0.0,1.0,1.0,1.0,1.0,1.0,0.0,0.4906005859375,-0.2069091796875,-0.137451171875,-0.03143310546875,-0.032562255859375,-0.032257080078125,C,1,2026-08-23_09-51-49,2026-08-23
0.6721311475409836,0.7197346600331676,0.8149405772495756,0.728110599078341,0.0,1.0,1.0,1.0,1.0,1.0,0.0,0.48681640625,-0.2041015625,-0.14990234375,-0.024749755859375,-0.025360107421875,-0.030029296875,C,1,2026-08-23_09-51-49,2026-08-23
0.6786885245901639,0.7197346600331676,0.8132427843803056,0.9585253456221198,0.18,1.0,1.0,1.0,1.0,1.0,0.0,0.485595703125,-0.2098388671875,-0.1566162109375,-0.029510498046875,-0.01812744140625,-0.028076171875,C,1,2026-08-23_09-51-49,2026-08-23
0.6612021857923497,0.7106135986733002,0.8217317487266553,0.511520737327189,0.22,1.0,1.0,1.0,1.0,1.0,0.0,0.4871826171875,-0.2073974609375,-0.1566162109375,-0.02392578125,-0.02655029296875,-0.028289794921875,C,1,2026-08-23_09-51-49,2026-08-23
0.6546448087431694,0.7197346600331676,0.7928692699490663,0.6451612903225806,0.0,1.0,1.0,1.0,1.0,1.0,0.0,0.486083984375,-0.2041015625,-0.1729736328125,-0.023651123046875,-0.033966064453125,-0.02874755859375,C,1,2026-08-23_09-51-49,2026-08-23
0.6775956284153005,0.724709784411277,0.8149405772495756,0.880184331797235,0.06,1.0,1.0,1.0,1.0,1.0,0.0,0.4801025390625,-0.193359375,-0.1763916015625,-0.03265380859375,-0.025390625,-0.02386474609375,C,1,2026-08-23_09-51-49,2026-08-23
0.6797814207650273,0.7189054726368159,0.8913412563667232,0.8894009216589862,0.3,1.0,1.0,1.0,1.0,1.0,0.0,0.4813232421875,-0.193359375,-0.1778564453125,-0.034759521484375,-0.018402099609375,-0.02130126953125,C,1,2026-08-23_09-51-49,2026-08-23
0.6754098360655738,0.7114427860696517,0.8505942275042445,0.5806451612903226,0.5,1.0,1.0,1.0,1.0,1.0,0.0,0.4830322265625,-0.195556640625,-0.17529296875,-0.036529541015625,-0.018585205078125,-0.015777587890625,C,1,2026-08-23_09-51-49,2026-08-23
0.6885245901639344,0.7338308457711443,0.8183361629881154,0.5391705069124424,0.22,1.0,1.0,1.0,1.0,1.0,0.0,0.486328125,-0.1939697265625,-0.17041015625,-0.050323486328125,-0.01800537109375,-0.01104736328125,C,1,2026-08-23_09-51-49,2026-08-23
0.6896174863387978,0.7238805970149254,0.8455008488964346,0.7419354838709677,0.0,1.0,1.0,1.0,1.0,1.0,0.0,0.488037109375,-0.1944580078125,-0.1680908203125,-0.052581787109375,-0.01263427734375,-0.013702392578125,C,1,2026-08-23_09-51-49,2026-08-23
0.6907103825136612,0.7213930348258707,0.8471986417657046,0.663594470046083,0.06,1.0,1.0,1.0,1.0,1.0,0.0,0.492919921875,-0.186767578125,-0.162109375,-0.050018310546875,-0.00408935546875,-0.01336669921875,C,1,2026-08-23_09-51-49,2026-08-23
0.6994535519125683,0.736318407960199,0.8505942275042445,0.5391705069124424,0.26,1.0,1.0,1.0,1.0,1.0,0.0,0.49755859375,-0.194091796875,-0.1561279296875,-0.048004150390625,-0.004547119140625,-0.015350341796875,C,1,2026-08-23_09-51-49,2026-08-23
0.6961748633879782,0.724709784411277,0.8251273344651953,0.7373271889400922,0.3,1.0,1.0,1.0,1.0,1.0,0.0,0.5009765625,-0.197509765625,-0.1566162109375,-0.051116943359375,-0.0111083984375,-0.019561767578125,C,1,2026-08-23_09-51-49,2026-08-23
0.6896174863387978,0.7072968490878938,0.8421052631578947,0.9861751152073732,0.12,1.0,1.0,1.0,1.0,1.0,0.0,0.50390625,-0.1953125,-0.156494140625,-0.052215576171875,-0.01953125,-0.018402099609375,C,1,2026-08-23_09-51-49,2026-08-23
0.6797814207650273,0.7371475953565506,0.8471986417657046,0.511520737327189,0.04,1.0,1.0,1.0,1.0,1.0,0.0,0.5015869140625,-0.1900634765625,-0.1607666015625,-0.06060791015625,-0.020172119140625,-0.01763916015625,C,1,2026-08-23_09-51-49,2026-08-23
0.6950819672131148,0.7222222222222222,0.7758913412563667,0.9170506912442395,0.06,1.0,1.0,1.0,1.0,1.0,0.0,0.5009765625,-0.1925048828125,-0.15625,-0.068328857421875,-0.032196044921875,-0.017486572265625,C,1,2026-08-23_09-51-49,2026-08-23
0.6841530054644809,0.7255389718076285,0.8421052631578947,0.6175115207373272,0.34,1.0,1.0,1.0,1.0,1.0,0.0,0.5001220703125,-0.18408203125,-0.161376953125,-0.07427978515625,-0.04254150390625,-0.013702392578125,C,1,2026-08-23_09-51-49,2026-08-23
0.7103825136612022,0.7454394693200663,0.8404074702886248,0.488479262672811,0.22,1.0,1.0,1.0,1.0,1.0,0.0,0.4945068359375,-0.177490234375,-0.18310546875,-0.057098388671875,-0.03460693359375,-0.014739990234375,C,1,2026-08-23_09-51-49,2026-08-23
0.7136612021857923,0.7172470978441128,0.8471986417657046,0.6175115207373272,0.18,1.0,1.0,1.0,1.0,1.0,0.0,0.4951171875,-0.1761474609375,-0.173095703125,-0.05877685546875,-0.043975830078125,-0.00457763671875,C,1,2026-08-23_09-51-49,2026-08-23
0.6633879781420765,0.7222222222222222,0.830220713073005,1.0,0.1,1.0,1.0,1.0,1.0,1.0,0.0,0.4886474609375,-0.1690673828125,-0.1751708984375,-0.053680419921875,-0.044342041015625,0.00390625,C,1,2026-08-23_09-51-49,2026-08-23
0.7060109289617487,0.7495854063018242,0.8438030560271647,0.8755760368663594,0.1,1.0,1.0,1.0,1.0,1.0,0.0,0.4842529296875,-0.177001953125,-0.1771240234375,-0.049774169921875,-0.042877197265625,0.005584716796875,C,1,2026-08-23_09-51-49,2026-08-23
0.6710382513661202,0.7288557213930348,0.831918505942275,0.8755760368663594,0.2,1.0,1.0,1.0,1.0,1.0,0.0,0.4803466796875,-0.173828125,-0.17431640625,-0.0428466796875,-0.045318603515625,0.0079345703125,C,1,2026-08-23_09-51-49,2026-08-23
0.692896174863388,0.7280265339966833,0.8455008488964346,0.7419354838709677,0.0,1.0,1.0,1.0,1.0,1.0,0.0,0.4820556640625,-0.179443359375,-0.18212890625,-0.03863525390625,-0.050384521484375,0.004425048828125,C,1,2026-08-23_09-51-49,2026-08-23
0.6579234972677596,0.7330016583747927,0.8438030560271647,0.6221198156682027,0.0,1.0,1.0,1.0,1.0,1.0,0.0,0.4737548828125,-0.1741943359375,-0.185302734375,-0.040771484375,-0.045928955078125,0.00299072265625,C,1,2026-08-23_09-51-49,2026-08-23
0.6939890710382514,0.736318407960199,0.8709677419354839,0.9539170506912442,0.34,1.0,1.0,1.0,1.0,1.0,0.0,0.474365234375,-0.1754150390625,-0.1878662109375,-0.035858154296875,-0.033935546875,0.0006103515625,C,1,2026-08-23_09-51-49,2026-08-23
0.7136612021857923,0.7288557213930348,0.8743633276740238,0.9631336405529954,0.26,1.0,1.0,1.0,1.0,1.0,0.0,0.4783935546875,-0.1773681640625,-0.19287109375,-0.033294677734375,-0.022186279296875,-0.006744384765625,C,1,2026-08-23_09-51-49,2026-08-23
0.6994535519125683,0.7189054726368159,0.8743633276740238,1.0,0.26,1.0,1.0,1.0,1.0,1.0,0.0,0.4791259765625,-0.166259765625,-0.190673828125,-0.0303955078125,-0.0123291015625,-0.013641357421875,C,1,2026-08-23_09-51-49,2026-08-23
0.6841530054644809,0.7321724709784412,0.8607809847198642,0.6774193548387096,0.1,1.0,1.0,1.0,1.0,1.0,0.0,0.4820556640625,-0.163330078125,-0.1923828125,-0.026763916015625,-0.000152587890625,-0.0186767578125,C,1,2026-08-23_09-51-49,2026-08-23
0.6896174863387978,0.7280265339966833,0.8726655348047538,0.6728110599078341,0.5,1.0,1.0,1.0,1.0,1.0,0.0,0.489990234375,-0.1566162109375,-0.1903076171875,-0.02386474609375,0.00518798828125,-0.017120361328125,C,1,2026-08-23_09-51-49,2026-08-23
0.8710382513661202,0.8524046434494196,0.8573853989813243,0.6175115207373272,0.34,1.0,1.0,1.0,1.0,1.0,0.0,0.4635009765625,-0.2080078125,-0.216552734375,-0.016845703125,-0.013916015625,0.00927734375,C,2,2026-08-23_09-51-49,2026-08-23
0.805464480874317,0.8474295190713101,0.9473684210526316,0.7373271889400922,0.0,1.0,1.0,1.0,1.0,1.0,0.0,0.4571533203125,-0.211669921875,-0.2225341796875,-0.016510009765625,-0.012847900390625,0.008026123046875,C,2,2026-08-23_09-51-49,2026-08-23
0.8153005464480875,0.8341625207296849,0.8641765704584041,0.7373271889400922,0.52,1.0,1.0,1.0,1.0,1.0,0.0,0.46044921875,-0.212890625,-0.21826171875,-0.019287109375,-0.010498046875,0.0054931640625,C,2,2026-08-23_09-51-49,2026-08-23
0.8185792349726776,0.8325041459369817,0.8217317487266553,0.6497695852534562,0.2,1.0,1.0,1.0,1.0,1.0,0.0,0.459228515625,-0.2056884765625,-0.21435546875,-0.021942138671875,-0.0098876953125,0.00140380859375,C,2,2026-08-23_09-51-49,2026-08-23
0.8163934426229508,0.8399668325041459,0.8862478777589134,0.8248847926267281,0.14,1.0,1.0,1.0,1.0,1.0,0.0,0.4608154296875,-0.1993408203125,-0.21923828125,-0.022491455078125,-0.006591796875,0.00128173828125,C,2,2026-08-23_09-51-49,2026-08-23
0.8743169398907104,0.8449419568822554,0.8471986417657046,0.8248847926267281,0.0,1.0,1.0,1.0,1.0,1.0,0.0,0.4630126953125,-0.1925048828125,-0.212890625,-0.020294189453125,-0.00640869140625,0.001556396484375,C,2,2026-08-23_09-51-49,2026-08-23
0.8207650273224044,0.8208955223880597,0.8183361629881154,0.8847926267281107,0.0,1.0,1.0,1.0,1.0,1.0,0.0,0.4656982421875,-0.1942138671875,-0.2091064453125,-0.013641357421875,-0.010772705078125,-0.000274658203125,C,2,2026-08-23_09-51-49,2026-08-23
0.8666666666666667,0.8648424543946932,0.865874363327674,0.8525345622119815,0.12,1.0,1.0,1.0,1.0,1.0,0.0,0.46484375,-0.2061767578125,-0.2117919921875,-0.01708984375,-0.007781982421875,-0.001953125,C,2,2026-08-23_09-51-49,2026-08-23
0.7836065573770492,0.7993366500829188,0.7894736842105263,0.5898617511520737,0.0,1.0,1.0,1.0,1.0,1.0,0.0,0.462646484375,-0.215087890625,-0.21142578125,-0.018463134765625,0.000732421875,-0.007415771484375,C,2,2026-08-23_09-51-49,2026-08-23
0.848087431693989,0.8490878938640133,0.9134125636672326,0.6405529953917051,0.14,1.0,1.0,1.0,1.0,1.0,0.0,0.4686279296875,-0.209716796875,-0.2103271484375,-0.021697998046875,0.002197265625,-0.01104736328125,C,2,2026-08-23_09-51-49,2026-08-23
0.8032786885245902,0.8208955223880597,0.8421052631578947,0.6359447004608295,0.0,1.0,1.0,1.0,1.0,1.0,0.0,0.4681396484375,-0.21435546875,-0.2125244140625,-0.01776123046875,-0.0018310546875,-0.009735107421875,C,2,2026-08-23_09-51-49,2026-08-23
0.8131147540983606,0.8275290215588723,0.8845500848896435,0.6451612903225806,0.28,1.0,1.0,1.0,1.0,1.0,0.0,0.4691162109375,-0.2093505859375,-0.2130126953125,-0.014801025390625,-0.00286865234375,-0.01068115234375,C,2,2026-08-23_09-51-49,2026-08-23
0.819672131147541,0.8159203980099502,0.8488964346349746,0.6820276497695853,0.18,1.0,1.0,1.0,1.0,1.0,0.0,0.4708251953125,-0.2073974609375,-0.2138671875,-0.012908935546875,-0.0023193359375,-0.013275146484375,C,2,2026-08-23_09-51-49,2026-08-23
0.8327868852459016,0.8490878938640133,0.8777589134125636,0.815668202764977,0.04,1.0,1.0,1.0,1.0,1.0,0.0,0.4708251953125,-0.2078857421875,-0.220458984375,-0.022430419921875,0.002471923828125,-0.014617919921875,C,2,2026-08-23_09-51-49,2026-08-23
0.8459016393442623,0.8308457711442786,0.9219015280135824,0.6543778801843319,0.0,1.0,1.0,1.0,1.0,1.0,0.0,0.4722900390625,-0.197021484375,-0.220458984375,-0.017822265625,0.001129150390625,-0.014312744140625,C,2,2026-08-23_09-51-49,2026-08-23
0.8306010928961749,0.8374792703150912,0.833616298811545,0.9262672811059908,0.0,1.0,1.0,1.0,1.0,1.0,0.0,0.4739990234375,-0.1954345703125,-0.2210693359375,-0.013275146484375,-0.006072998046875,-0.016815185546875,C,2,2026-08-23_09-51-49,2026-08-23
0.8109289617486338,0.8325041459369817,0.8726655348047538,0.7603686635944701,0.0,1.0,1.0,1.0,1.0,1.0,0.0,0.475341796875,-0.185546875,-0.2210693359375,-0.0128173828125,-0.008087158203125,-0.019683837890625,C,2,2026-08-23_09-51-49,2026-08-23
0.8218579234972677,0.8341625207296849,0.8743633276740238,0.5990783410138248,0.36,1.0,1.0,1.0,1.0,1.0,0.0,0.4781494140625,-0.1802978515625,-0.2169189453125,-0.004364013671875,-0.0096435546875,-0.022918701171875,C,2,2026-08-23_09-51-49,2026-08-23
0.853551912568306,0.8407960199004975,0.8590831918505942,0.5990783410138248,0.32,1.0,1.0,1.0,1.0,1.0,0.0,0.4825439453125,-0.166015625,-0.2247314453125,-0.007476806640625,-0.01654052734375,-0.030303955078125,C,2,2026-08-23_09-51-49,2026-08-23
0.8185792349726776,0.8374792703150912,0.9015280135823428,0.6912442396313364,0.52,1.0,1.0,1.0,1.0,1.0,0.0,0.4774169921875,-0.1654052734375,-0.2301025390625,-0.00830078125,-0.02716064453125,-0.025726318359375,C,2,2026-08-23_09-51-49,2026-08-23
0.833879781420765,0.8250414593698175,0.8285229202037352,0.5898617511520737,0.2,1.0,1.0,1.0,1.0,1.0,0.0,0.4691162109375,-0.179931640625,-0.22998046875,-0.02337646484375,-0.035797119140625,-0.015106201171875,C,2,2026-08-23_09-51-49,2026-08-23
0.8065573770491803,0.8399668325041459,0.865874363327674,0.7695852534562212,0.0,1.0,1.0,1.0,1.0,1.0,0.0,0.4613037109375,-0.1922607421875,-0.2291259765625,-0.03729248046875,-0.03326416015625,-0.010528564453125,C,2,2026-08-23_09-51-49,2026-08-23
0.8185792349726776,0.8308457711442786,0.8183361629881154,0.6866359447004609,0.0,1.0,1.0,1.0,1.0,1.0,0.0,0.4638671875,-0.1947021484375,-0.2264404296875,-0.038726806640625,-0.027099609375,-0.012969970703125,C,2,2026-08-23_09-51-49,2026-08-23
0.8087431693989071,0.824212271973466,0.8421052631578947,0.6820276497695853,0.0,1.0,1.0,1.0,1.0,1.0,0.0,0.4622802734375,-0.1943359375,-0.2281494140625,-0.03753662109375,-0.0174560546875,-0.019378662109375,C,2,2026-08-23_09-51-49,2026-08-23
0.8185792349726776,0.8291873963515755,0.8421052631578947,0.6221198156682027,0.0,1.0,1.0,1.0,1.0,1.0,0.0,0.46142578125,-0.1845703125,-0.2265625,-0.02606201171875,-0.00537109375,-0.0289306640625,C,2,2026-08-23_09-51-49,2026-08-23
0.8633879781420765,0.8101160862354893,0.8998302207130731,0.7235023041474654,0.22,1.0,1.0,1.0,1.0,1.0,0.0,0.463134765625,-0.1788330078125,-0.2269287109375,-0.00994873046875,0.005706787109375,-0.032806396484375,C,2,2026-08-23_09-51-49,2026-08-23
0.8087431693989071,0.8316749585406302,0.8353140916808149,0.5391705069124424,0.0,1.0,1.0,1.0,1.0,1.0,0.0,0.4627685546875,-0.1844482421875,-0.2247314453125,-0.01446533203125,0.01275634765625,-0.03570556640625,C,2,2026-08-23_09-51-49,2026-08-23
0.8229508196721311,0.8341625207296849,0.865874363327674,0.8894009216589862,0.1,1.0,1.0,1.0,1.0,1.0,0.0,0.4644775390625,-0.180419921875,-0.2191162109375,-0.020172119140625,0.013092041015625,-0.0362548828125,C,2,2026-08-23_09-51-49,2026-08-23
0.8306010928961749,0.8275290215588723,0.8743633276740238,0.728110599078341,0.0,1.0,1.0,1.0,1.0,1.0,0.0,0.4639892578125,-0.173583984375,-0.21875,-0.0247802734375,0.011505126953125,-0.032684326171875,C,2,2026-08-23_09-51-49,2026-08-23
0.819672131147541,0.8407960199004975,0.8794567062818336,0.6912442396313364,0.38,1.0,1.0,1.0,1.0,1.0,0.0,0.4664306640625,-0.16162109375,-0.217041015625,-0.029998779296875,0.0128173828125,-0.0296630859375,C,2,2026-08-23_09-51-49,2026-08-23
0.8229508196721311,0.8407960199004975,0.8556876061120543,0.4285714285714285,0.14,1.0,1.0,1.0,1.0,1.0,0.0,0.4697265625,-0.1488037109375,-0.2132568359375,-0.021331787109375,0.002655029296875,-0.030120849609375,C,2,2026-08-23_09-51-49,2026-08-23
0.8360655737704918,0.8266998341625207,0.8573853989813243,0.5023041474654378,0.12,1.0,1.0,1.0,1.0,1.0,0.0,0.46923828125,-0.1556396484375,-0.216552734375,-0.01739501953125,-0.0006103515625,-0.0228271484375,C,2,2026-08-23_09-51-49,2026-08-23
0.8459016393442623,0.8532338308457711,0.8930390492359932,0.5898617511520737,0.0,1.0,1.0,1.0,1.0,1.0,0.0,0.466064453125,-0.1375732421875,-0.0828857421875,-0.021636962890625,-0.010498046875,-0.021942138671875,C,2,2026-08-23_09-51-49,2026-08-23
0.8306010928961749,0.8349917081260365,0.8896434634974533,0.4423963133640553,0.18,1.0,1.0,1.0,1.0,1.0,0.0,0.4713134765625,-0.154052734375,-0.2144775390625,-0.01654052734375,-0.004608154296875,-0.010009765625,C,2,2026-08-23_09-51-49,2026-08-23
0.8240437158469945,0.8341625207296849,0.8913412563667232,0.6267281105990783,0.1,1.0,1.0,1.0,1.0,1.0,0.0,0.473388671875,-0.162353515625,-0.2110595703125,-0.02215576171875,-0.00689697265625,-0.002410888671875,C,2,2026-08-23_09-51-49,2026-08-23
0.8404371584699454,0.8325041459369817,0.8726655348047538,0.4746543778801843,0.18,1.0,1.0,1.0,1.0,1.0,0.0,0.4766845703125,-0.158935546875,-0.21337890625,-0.014678955078125,-0.013031005859375,0.001800537109375,C,2,2026-08-23_09-51-49,2026-08-23
0.8218579234972677,0.8308457711442786,0.865874363327674,0.7465437788018433,0.02,1.0,1.0,1.0,1.0,1.0,0.0,0.4810791015625,-0.1534423828125,-0.20947265625,0.009063720703125,-0.01605224609375,-0.000885009765625,C,2,2026-08-23_09-51-49,2026-08-23
0.8185792349726776,0.8432835820895522,0.8522920203735145,0.4654377880184331,0.0,1.0,1.0,1.0,1.0,1.0,0.0,0.4755859375,-0.1710205078125,-0.2239990234375,0.026153564453125,-0.021881103515625,-0.006011962890625,C,2,2026-08-23_09-51-49,2026-08-23
0.8349726775956284,0.8391376451077943,0.8726655348047538,0.8387096774193549,0.0,1.0,1.0,1.0,1.0,1.0,0.0,0.4652099609375,-0.1690673828125,-0.2210693359375,0.048095703125,-0.011871337890625,-0.028289794921875,C,2,2026-08-23_09-51-49,2026-08-23
0.833879781420765,0.8416252072968491,0.8913412563667232,0.8248847926267281,0.0,1.0,1.0,1.0,1.0,1.0,0.0,0.4775390625,-0.1866455078125,-0.226318359375,0.043731689453125,-0.006103515625,-0.03802490234375,C,2,2026-08-23_09-51-49,2026-08-23
0.740983606557377,0.7844112769485904,1.0,1.0,0.04,1.0,1.0,1.0,1.0,1.0,0.0,0.4620361328125,-0.15576171875,-0.2529296875,-0.0220947265625,-0.01312255859375,0.0164794921875,C,3,2026-08-23_09-51-49,2026-08-23
0.7333333333333333,0.8325041459369817,1.0,0.815668202764977,0.98,1.0,1.0,1.0,1.0,1.0,0.0,0.461181640625,-0.156494140625,-0.2547607421875,-0.022918701171875,-0.01165771484375,0.018035888671875,C,3,2026-08-23_09-51-49,2026-08-23
0.7311475409836066,0.7744610281923715,1.0,1.0,0.0,1.0,1.0,1.0,1.0,1.0,0.0,0.46484375,-0.160400390625,-0.2503662109375,-0.01806640625,-0.009002685546875,0.017333984375,C,3,2026-08-23_09-51-49,2026-08-23
0.7497267759562841,0.8126036484245439,1.0,1.0,0.14,1.0,1.0,1.0,1.0,1.0,0.0,0.468505859375,-0.155029296875,-0.2418212890625,-0.01318359375,-0.009521484375,0.014495849609375,C,3,2026-08-23_09-51-49,2026-08-23
0.7475409836065574,0.8150912106135987,1.0,0.8248847926267281,0.12,1.0,1.0,1.0,1.0,1.0,0.0,0.46630859375,-0.157470703125,-0.2469482421875,-0.0162353515625,-0.01123046875,0.01141357421875,C,3,2026-08-23_09-51-49,2026-08-23
0.7770491803278688,0.7868988391376451,0.8641765704584041,0.9815668202764976,0.0,1.0,1.0,1.0,1.0,1.0,0.0,0.4656982421875,-0.1512451171875,-0.2421875,-0.011810302734375,-0.006256103515625,0.011749267578125,C,3,2026-08-23_09-51-49,2026-08-23
0.7486338797814208,0.8233830845771144,0.8913412563667232,1.0,0.22,1.0,1.0,1.0,1.0,1.0,0.0,0.4654541015625,-0.15283203125,-0.245361328125,-0.013519287109375,-0.003936767578125,0.01068115234375,C,3,2026-08-23_09-51-49,2026-08-23
0.7355191256830601,0.8126036484245439,0.933786078098472,0.9585253456221198,0.06,1.0,1.0,1.0,1.0,1.0,0.0,0.461181640625,-0.16064453125,-0.2413330078125,-0.019989013671875,-0.00677490234375,0.01190185546875,C,3,2026-08-23_09-51-49,2026-08-23
0.6786885245901639,0.7769485903814262,0.8624787775891342,0.9216589861751152,0.12,1.0,1.0,1.0,1.0,1.0,0.0,0.458984375,-0.1522216796875,-0.2314453125,-0.0177001953125,-0.006317138671875,0.011749267578125,C,3,2026-08-23_09-51-49,2026-08-23
0.7497267759562841,0.7893864013266998,0.8811544991511036,0.8709677419354839,0.28,1.0,1.0,1.0,1.0,1.0,0.0,0.4569091796875,-0.157470703125,-0.2296142578125,-0.013824462890625,-0.004669189453125,0.010711669921875,C,3,2026-08-23_09-51-49,2026-08-23
0.7770491803278688,0.8101160862354893,0.9388794567062818,0.9170506912442395,0.2,1.0,1.0,1.0,1.0,1.0,0.0,0.458251953125,-0.1558837890625,-0.2249755859375,-0.00616455078125,-0.01007080078125,0.01287841796875,C,3,2026-08-23_09-51-49,2026-08-23
0.726775956284153,0.7993366500829188,0.9219015280135824,0.7926267281105991,0.22,1.0,1.0,1.0,1.0,1.0,0.0,0.45703125,-0.1580810546875,-0.2259521484375,0.000762939453125,-0.020477294921875,0.0145263671875,C,3,2026-08-23_09-51-49,2026-08-23
0.6786885245901639,0.763681592039801,0.7928692699490663,0.8755760368663594,0.0,1.0,1.0,1.0,1.0,1.0,0.0,0.4649658203125,-0.1630859375,-0.2283935546875,0.00341796875,-0.02362060546875,0.0203857421875,C,3,2026-08-23_09-51-49,2026-08-23
