Label,Mode,FlexPinky,FlexRing,FlexMiddle,FlexIndex,FlexThumb,TouchIndex,TouchMiddle,TouchRing,TouchPinky,TouchR,TouchU,AccX,AccY,AccZ,GyroX,GyroY,GyroZ
H,1,410,687,1296,511,2597,1,1,1,1,1,0,2620,-13624,-8500,-1563,-497,362
H,1,387,697,1270,501,2207,1,1,1,1,1,0,2836,-13344,-8308,-785,-636,55
H,1,239,847,1248,497,2559,1,1,1,1,1,0,2704,-13412,-8476,-559,-164,74
H,1,310,599,1306,560,2580,1,1,1,1,1,0,2660,-13560,-8576,-259,-209,154
H,1,231,703,1301,443,2615,1,1,1,1,1,0,2556,-13772,-8536,-315,-249,388
H,1,434,688,1235,490,2619,1,1,1,1,1,0,2628,-14048,-8692,-317,-142,356
H,1,411,685,1264,586,2589,1,1,1,1,1,0,2408,-14076,-8492,-90,-566,324
H,1,387,681,1200,544,2559,1,1,1,1,1,0,2364,-14424,-8844,-526,-180,148
H,1,304,722,1282,464,2593,1,1,1,1,1,0,2488,-14116,-8768,-801,-26,-54
H,1,369,677,1293,505,2551,1,1,1,1,1,0,2668,-13932,-8664,-747,-341,90
H,1,421,709,1269,508,2608,1,1,1,1,1,0,2552,-13992,-8552,-961,-371,171
H,1,422,692,1277,463,2559,1,1,1,1,1,0,2516,-13924,-8700,-693,-176,-58
H,1,333,734,1171,509,2587,1,1,1,1,1,0,2508,-13784,-8728,-372,-311,-175
H,1,405,541,1280,634,2592,1,1,1,1,1,0,2720,-13928,-8868,-759,134,-10
H,1,400,726,1232,601,2609,1,1,1,1,1,0,2552,-13940,-8644,-369,-272,59
H,1,450,706,1268,477,2599,1,1,1,1,1,0,2624,-13972,-8552,-593,-204,-20
H,1,443,655,1289,542,2589,1,1,1,1,1,0,2504,-13940,-8620,-618,-308,92
H,1,390,688,1201,574,2622,1,1,1,1,1,0,2464,-13600,-8572,-570,-459,282
H,1,497,752,1165,459,2666,1,1,1,1,1,0,2404,-13688,-8628,-310,-110,250
H,1,367,754,1281,511,2581,1,1,1,1,1,0,2320,-14240,-8924,-797,-520,453
H,1,397,751,1251,479,2603,1,1,1,1,1,0,2540,-14108,-8744,-813,-277,180
H,1,395,681,1201,417,2608,1,1,1,1,1,0,2388,-14132,-8756,-676,-162,-242
H,1,434,683,1222,511,2645,1,1,1,1,1,0,2388,-13664,-8812,-823,-791,5
H,1,289,738,1322,476,2550,1,1,1,1,1,0,2376,-13424,-8988,-916,-648,275
H,1,343,709,1327,492,2599,1,1,1,1,1,0,2236,-13968,-8724,-376,-332,9
H,1,387,688,1281,511,2603,1,1,1,1,1,0,2408,-14072,-8716,-437,-582,-94
H,1,443,677,1311,502,2593,1,1,1,1,1,0,2532,-13704,-8800,-811,-213,-27
H,1,527,662,1272,546,2591,1,1,1,1,1,0,2580,-13564,-8816,-674,-420,248
H,1,341,735,1255,352,2625,1,1,1,1,1,0,2420,-13820,-8880,-675,-159,250
H,1,438,710,1296,511,2608,1,1,1,1,1,0,2444,-14020,-8772,-363,-27,-70
H,1,425,693,1255,474,2603,1,1,1,1,1,0,2500,-13892,-8784,-450,-12,-88
H,1,350,694,1285,492,2559,1,1,1,1,1,0,2400,-13928,-8508,-434,-244,-40
H,1,339,682,1263,592,2615,1,1,1,1,1,0,2404,-13800,-8664,-338,-406,-34
H,1,486,592,1257,527,2611,1,1,1,1,1,0,2348,-13736,-8612,-538,-430,128
H,1,339,727,1318,523,2622,1,1,1,1,1,0,2256,-13928,-9100,-815,-440,316
H,1,401,725,1302,494,2559,1,1,1,1,1,0,2424,-13984,-8916,-342,-30,4
H,1,400,719,1226,500,2559,1,1,1,1,1,0,2548,-13824,-8788,-420,-99,71
H,1,432,783,1254,534,2544,1,1,1,1,1,0,2484,-13816,-8600,-421,-285,113
H,1,507,761,1181,437,2649,1,1,1,1,1,0,2464,-13816,-8656,-574,-230,97
H,1,378,693,1245,533,2559,1,1,1,1,1,0,2660,-13932,-8648,-469,-635,118
H,1,398,670,1309,488,2603,1,1,1,1,1,0,2680,-13800,-8888,-689,-757,155
H,1,393,656,1224,478,2606,1,1,1,1,1,0,2664,-13632,-8836,-133,-354,-226
H,1,486,643,1135,448,2649,1,1,1,1,1,0,2708,-13876,-8508,-41,-94,-400
H,1,287,740,1327,457,2598,1,1,1,1,1,0,2252,-14004,-8500,-532,-571,-23
H,1,393,657,1293,490,2607,1,1,1,1,1,0,2148,-14172,-8768,-678,-653,115
H,1,349,690,1296,490,2594,1,1,1,1,1,0,2128,-13888,-8892,-488,-581,-70
H,1,415,682,1299,455,2618,1,1,1,1,1,0,2188,-13836,-8592,-309,-490,143
H,1,247,815,1359,390,2595,1,1,1,1,1,0,2028,-13840,-8420,-513,-344,287
H,1,307,750,1327,509,2544,1,1,1,1,1,0,2260,-13800,-8636,-772,-292,417
H,1,433,702,1248,459,2631,1,1,1,1,1,0,2260,-13748,-8712,-399,-55,240
H,1,385,670,1258,493,2602,1,1,1,1,1,0,2544,-13748,-8784,-421,-152,464
H,1,331,751,1242,482,2559,1,1,1,1,1,0,2588,-13768,-8540,-434,-107,605
H,1,496,640,1353,495,2559,1,1,1,1,1,0,2408,-14344,-8664,-555,-361,635
H,1,464,529,1251,574,2605,1,1,1,1,1,0,2544,-14164,-8692,-470,-136,185
H,1,405,720,1293,528,2617,1,1,1,1,1,0,2488,-13920,-8564,-445,-203,39
H,1,368,698,1266,525,2624,1,1,1,1,1,0,2340,-13980,-8672,-707,-244,111
H,1,397,715,1264,653,2559,1,1,1,1,1,0,2104,-13804,-8652,-675,-600,144
H,1,301,817,1365,353,2509,1,1,1,1,1,0,2176,-13492,-8688,-202,-510,-90
H,1,456,752,1181,397,2642,1,1,1,1,1,0,2060,-13820,-8820,-293,-84,66
H,1,416,741,1289,463,2608,1,1,1,1,1,0,2104,-14024,-8728,-391,-114,218
H,1,469,703,1231,481,2625,1,1,1,1,1,0,2332,-14048,-8620,-382,-64,175
H,1,389,662,723,485,2640,1,1,1,1,1,0,2324,-14176,-8476,-387,-423,260
H,1,493,764,1341,441,2640,1,1,1,1,1,0,2280,-14132,-8748,-611,-205,132
H,1,626,768,1023,418,2695,1,1,1,1,1,0,2168,-13996,-8940,-655,-336,202
H,1,302,661,1242,461,2609,1,1,1,1,1,0,2216,-13952,-8844,-649,-69,200
H,1,392,709,1267,479,2602,1,1,1,1,1,0,2372,-13900,-8584,-649,-159,232
H,1,532,673,1246,479,2607,1,1,1,1,1,0,2272,-14056,-8612,-952,-100,359
H,1,393,710,1157,455,2608,1,1,1,1,1,0,2316,-13788,-8624,-566,-215,96
H,1,592,510,1205,610,2608,1,1,1,1,1,0,2284,-13660,-8828,-552,-243,193
H,1,445,735,1089,484,2608,1,1,1,1,1,0,2280,-13932,-8704,-372,-130,152
H,1,400,652,1239,529,2590,1,1,1,1,1,0,2172,-13924,-8580,-412,38,80
H,1,381,678,1208,454,2638,1,1,1,1,1,0,2232,-13848,-8432,-427,-135,110
H,1,351,702,1334,400,2623,1,1,1,1,1,0,2128,-14240,-8772,-596,-520,204
H,1,404,594,1293,581,2528,1,1,1,1,1,0,2136,-14008,-8948,-768,-304,100
H,1,413,733,1249,493,2608,1,1,1,1,1,0,1948,-13836,-8628,-452,-207,37
H,1,345,704,1263,496,2597,1,1,1,1,1,0,2148,-13860,-8612,-713,4,216
H,1,375,716,1238,496,2581,1,1,1,1,1,0,2412,-13896,-8520,-255,-108,20
H,1,471,608,1254,471,2638,1,1,1,1,1,0,2312,-14052,-8732,-293,-284,20
H,1,505,651,1120,475,2656,1,1,1,1,1,0,2344,-13620,-8428,-572,-357,110
H,1,383,689,1269,490,2608,1,1,1,1,1,0,2256,-13692,-8684,-643,-680,436
H,1,382,664,1223,543,2583,1,1,1,1,1,0,2248,-14144,-8736,-479,-382,273
H,1,419,715,1195,503,2620,1,1,1,1,1,0,2192,-13852,-8640,-544,-230,140
H,1,343,815,1110,422,2694,1,1,1,1,1,0,2252,-14000,-8548,-524,-539,246
H,1,267,869,1247,432,2608,1,1,1,1,1,0,2108,-13952,-8728,-712,-442,88
H,1,375,723,1288,496,2678,1,1,1,1,1,0,2084,-13948,-8792,-545,-333,118
H,1,449,691,1213,465,2615,1,1,1,1,1,0,2116,-13812,-8692,-558,-424,198
H,1,348,710,1258,464,2624,1,1,1,1,1,0,2144,-13768,-8736,-469,-334,122
H,1,298,757,1389,483,2559,1,1,1,1,1,0,1936,-13864,-8728,-578,-366,273
H,1,128,587,1306,474,2529,1,1,1,1,1,0,2036,-13576,-8528,-367,-49,20
H,1,40,656,1187,502,2642,1,1,1,1,1,0,2084,-13284,-8096,-458,-757,649
H,1,414,720,1207,483,2582,1,1,1,1,1,0,2004,-14420,-9132,-802,-652,797
H,1,373,707,1187,480,2613,1,1,1,1,1,0,1864,-14348,-9232,-237,-77,-146
H,1,469,707,1277,421,2618,1,1,1,1,1,0,2136,-13904,-8760,-314,67,-273
H,1,528,662,1148,511,2633,1,1,1,1,1,0,1960,-14000,-8616,-800,-104,253
H,1,409,781,1188,470,2625,1,1,1,1,1,0,1832,-14048,-8644,-719,-502,332
H,1,386,719,1264,503,2559,1,1,1,1,1,0,1884,-13680,-8612,-494,60,-105
H,1,414,630,1218,431,2620,1,1,1,1,1,0,1844,-13868,-8564,-429,-57,-48
H,1,363,761,1142,530,2593,1,1,1,1,1,0,2064,-13880,-8580,-846,-138,278
H,1,386,802,1183,409,2628,1,1,1,1,1,0,2048,-13952,-8800,-291,-514,164
H,1,364,675,1236,487,2607,1,1,1,1,1,0,2040,-13904,-8740,-640,-253,209
H,1,417,696,1190,484,2610,1,1,1,1,1,0,1984,-13836,-8656,-425,-369,103
H,1,321,599,1234,477,2642,1,1,1,1,1,0,2096,-13900,-8692,-633,-393,276
H,1,290,670,1168,529,2555,1,1,1,1,1,0,2056,-13836,-8596,-359,-176,-15
H,1,316,698,1201,448,2559,1,1,1,1,1,0,2084,-13844,-8788,-674,-142,52
H,1,386,685,1290,484,2595,1,1,1,1,1,0,1964,-13764,-8804,-331,-390,114
H,1,405,688,1229,466,2591,1,1,1,1,1,0,1996,-13928,-8808,-621,-157,240
H,1,333,737,1315,452,2635,1,1,1,1,1,0,1980,-13768,-8596,-496,-155,185
H,1,401,679,1280,415,2635,1,1,1,1,1,0,1840,-13900,-8984,-572,-269,331
H,1,337,656,1297,567,2554,1,1,1,1,1,0,1896,-13980,-8672,-322,-65,110
H,1,403,679,1169,496,2582,1,1,1,1,1,0,1904,-14056,-8612,-372,-180,99
H,1,390,662,1275,496,2594,1,1,1,1,1,0,1916,-13896,-8556,-645,-412,371
H,1,401,645,1220,507,2586,1,1,1,1,1,0,1984,-14188,-8828,-538,-290,173
H,1,385,687,1168,447,2741,1,1,1,1,1,0,2032,-14060,-8552,-647,-254,174
H,1,371,814,1215,384,2601,1,1,1,1,1,0,1988,-13968,-8812,-567,-400,127
H,1,386,649,1206,477,2601,1,1,1,1,1,0,1988,-13812,-8808,-554,-216,80
H,1,368,703,1232,494,2611,1,1,1,1,1,0,1812,-13916,-8920,-944,-135,298
H,1,410,553,1197,473,2527,1,1,1,1,1,0,1432,-13744,-8736,-978,-176,573
H,1,435,638,1171,475,2559,1,1,1,1,1,0,1608,-13768,-9032,-673,-328,631
H,1,322,674,1307,541,2535,1,1,1,1,1,0,1984,-13944,-8896,-1118,323,645
H,1,353,726,1210,479,2607,1,1,1,1,1,0,1888,-13960,-8636,-703,331,204
H,1,390,679,1200,475,2608,1,1,1,1,1,0,1976,-13828,-8604,-750,-126,105
H,1,493,589,1249,510,2559,1,1,1,1,1,0,1900,-13644,-8692,-576,-412,-91
H,1,318,800,1185,490,2588,1,1,1,1,1,0,1912,-13548,-8672,-626,-327,-57
H,1,197,705,1278,501,2533,1,1,1,1,1,0,1788,-13508,-8832,-394,-332,-47
H,1,442,756,1175,501,2559,1,1,1,1,1,0,1592,-13536,-8960,-432,-423,191
H,1,385,645,1205,474,2608,1,1,1,1,1,0,1772,-13632,-8868,-152,-440,207
H,1,428,816,1202,560,2623,1,1,1,1,1,0,1884,-13700,-8700,-418,-582,450
H,1,400,699,1103,677,2550,1,1,1,1,1,0,1712,-13896,-8704,-587,-451,714
H,1,345,614,1260,543,2554,1,1,1,1,1,0,1640,-14252,-8956,-587,-773,888
H,1,449,688,1153,490,2609,1,1,1,1,1,0,1584,-14320,-9032,-912,-742,561
H,1,336,650,1274,491,2596,1,1,1,1,1,0,1604,-13948,-9100,-670,118,-325
H,1,449,639,1237,500,2613,1,1,1,1,1,0,1736,-13540,-8788,-621,-238,-92
H,1,434,711,1451,400,2524,1,1,1,1,1,0,1536,-13792,-8796,-776,-306,191
H,1,357,592,1270,595,2559,1,1,1,1,1,0,1524,-13904,-8940,-514,-257,25
H,1,384,667,1219,464,2551,1,1,1,1,1,0,1536,-13576,-8896,-606,-147,-61
H,1,399,666,1191,511,2606,1,1,1,1,1,0,1640,-13520,-8712,-229,-334,13
H,1,510,643,1097,550,2601,1,1,1,1,1,0,1548,-13804,-9020,-557,-304,339
H,1,561,720,895,549,2614,1,1,1,1,1,0,1440,-13844,-8928,-496,-257,171
H,1,347,838,1274,387,2552,1,1,1,1,1,0,1560,-13692,-8828,-306,-274,-90
H,1,384,679,1230,511,2609,1,1,1,1,1,0,1672,-13556,-8812,-455,7,-29
H,1,411,667,1217,499,2622,1,1,1,1,1,0,1584,-13532,-8852,-393,-551,271
H,1,448,688,1043,422,2597,1,1,1,1,1,0,1532,-13620,-8804,-464,-293,421
H,1,405,816,938,495,2609,1,1,1,1,1,0,1576,-13988,-8736,-360,-110,372
H,1,305,724,1257,493,2608,1,1,1,1,1,0,1528,-14116,-8692,-259,-179,162
H,1,414,663,1216,526,2602,1,1,1,1,1,0,1488,-14120,-8728,-520,-280,7
H,1,462,734,1175,470,2626,1,1,1,1,1,0,1588,-13800,-8848,-308,-382,-38
H,1,356,769,1196,447,2512,1,1,1,1,1,0,1736,-13852,-8836,-544,-448,299
H,1,368,593,1413,447,2496,1,1,1,1,1,0,1476,-13956,-8960,-744,-465,235
H,1,407,552,1222,491,2582,1,1,1,1,1,0,1452,-13764,-8976,-524,-224,-63
H,1,402,698,1206,464,2620,1,1,1,1,1,0,1496,-13872,-8640,-567,-301,60
H,1,399,634,1198,496,2606,1,1,1,1,1,0,1548,-13864,-8464,-429,-581,-46
H,1,128,674,1186,527,2612,1,1,1,1,1,0,1396,-13760,-8628,-677,-613,146
H,1,891,624,1071,360,2698,1,1,1,1,1,0,1472,-13888,-8952,-424,-459,-1
H,1,359,803,1103,432,2600,1,1,1,1,1,0,1572,-13876,-8796,-577,-494,130
H,1,386,656,1205,492,2610,1,1,1,1,1,0,1420,-14044,-8872,-837,-290,214
H,1,402,681,1195,496,2611,1,1,1,1,1,0,1400,-13932,-8804,-763,-390,69
H,1,380,701,1173,459,2608,1,1,1,1,1,0,1592,-13580,-8840,-658,-117,2
H,1,353,691,1230,493,2591,1,1,1,1,1,0,1420,-13584,-8652,-944,-16,278
H,1,331,610,1179,508,2655,1,1,1,1,1,0,1324,-13720,-8864,-588,-327,57
H,1,424,656,1171,483,2612,1,1,1,1,1,0,1336,-13732,-9172,-600,54,-76
H,1,390,693,1207,485,2608,1,1,1,1,1,0,1468,-13556,-8712,-407,-154,26
H,1,355,699,1194,486,2559,1,1,1,1,1,0,1424,-13500,-8752,-507,-300,359
H,1,657,449,1269,496,2634,1,1,1,1,1,0,1296,-13960,-8848,-391,-262,377
H,1,439,795,1124,429,2582,1,1,1,1,1,0,1416,-13700,-8648,-137,-47,-102
H,1,406,589,1211,511,2609,1,1,1,1,1,0,1560,-13512,-9016,-399,-447,323
H,1,415,656,1162,505,2614,1,1,1,1,1,0,1424,-14016,-9124,-625,-92,351
H,1,445,400,1041,551,3071,1,1,1,1,1,0,1580,-14124,-8876,-330,310,-104
H,1,689,441,1245,487,2652,1,1,1,1,1,0,1556,-13812,-8640,-460,-175,3
H,1,434,746,1123,511,2470,1,1,1,1,1,0,1592,-13956,-8568,-905,-434,232
H,1,419,734,1232,511,2559,1,1,1,1,1,0,1472,-13988,-8868,-532,-280,-16
H,1,395,673,1206,468,2603,1,1,1,1,1,0,1424,-13676,-8864,-607,-357,34
H,1,428,610,1224,478,2620,1,1,1,1,1,0,1440,-13728,-8744,-500,-292,73
H,1,557,800,903,496,2637,1,1,1,1,1,0,1256,-13864,-8720,-353,-469,152
H,1,423,693,1216,550,2638,1,1,1,1,1,0,1400,-14092,-8960,-757,-3,187
H,1,418,663,1179,476,2585,1,1,1,1,1,0,1308,-13884,-8788,-432,-432,85
H,1,464,694,1131,495,2559,1,1,1,1,1,0,1476,-13648,-8972,-698,-179,145
H,1,314,814,1317,453,2615,1,1,1,1,1,0,1532,-13796,-8744,-281,-94,-2
H,1,245,631,1246,559,2559,1,1,1,1,1,0,1640,-13784,-8740,-683,-73,120
H,1,423,483,1200,444,2631,1,1,1,1,1,0,1524,-13900,-8788,-409,-117,-184
H,1,374,646,1126,511,2625,1,1,1,1,1,0,1456,-13620,-8792,-476,-280,51
H,1,358,655,1206,493,2601,1,1,1,1,1,0,1580,-13644,-8832,-312,-337,151
H,1,402,672,1043,530,2654,1,1,1,1,1,0,1424,-13968,-8836,-489,-132,275
H,1,511,625,1043,487,2666,1,1,1,1,1,0,1616,-14008,-8756,-351,137,54
H,1,375,704,1104,546,2712,1,1,1,1,1,0,1620,-14160,-8856,-491,-397,75
H,1,359,660,1185,501,2610,1,1,1,1,1,0,1452,-13940,-8668,-515,-99,-22
H,1,437,640,1126,501,2615,1,1,1,1,1,0,1420,-13816,-9100,-765,-613,266
H,1,404,736,1194,153,2595,1,1,1,1,1,0,1392,-13756,-8932,-730,-215,233
H,1,270,738,1191,418,2559,1,1,1,1,1,0,1344,-13916,-8892,-596,492,-79
H,1,353,641,1121,474,2541,1,1,1,1,1,0,1564,-13700,-8396,-537,145,-64
H,1,430,669,1130,455,2613,1,1,1,1,1,0,1780,-13680,-8624,-477,-172,150
H,1,405,689,1153,453,2617,1,1,1,1,1,0,1724,-13964,-8736,-536,-398,200
H,1,368,720,636,494,2601,1,1,1,1,1,0,1660,-13972,-8864,-635,-786,200
H,1,257,598,1222,547,2559,1,1,1,1,1,0,1520,-13784,-8756,-644,-107,-48
H,1,480,682,981,496,2595,1,1,1,1,1,0,1356,-13668,-8704,-541,-447,131
H,1,400,647,1115,480,2598,1,1,1,1,1,0,1204,-13740,-9048,-631,-575,322
H,1,375,651,1161,508,2587,1,1,1,1,1,0,1396,-13544,-8996,-260,132,-151
H,1,419,679,1903,505,2559,1,1,1,1,1,0,1500,-13652,-8904,-336,103,261
H,1,582,548,1126,561,2615,1,1,1,1,1,0,1444,-13752,-8476,-382,-110,433
H,1,390,650,1054,464,2602,1,1,1,1,1,0,1368,-14096,-9088,-661,-542,583
H,1,386,666,1141,502,2606,1,1,1,1,1,0,1492,-14100,-9156,-512,68,43
I,1,1279,752,830,399,2480,0,1,1,1,0,0,15356,8572,-4248,-578,-308,68
I,1,1365,723,756,333,2585,1,1,1,1,0,0,15488,8432,-4392,-772,-85,155
I,1,1242,791,730,358,2598,1,1,1,1,0,0,15496,8436,-3840,-309,-142,131
I,1,1295,784,784,311,2559,1,1,1,1,0,0,15620,8616,-4216,-696,-295,171
I,1,1283,783,722,339,2559,1,1,1,1,0,0,15372,8424,-4116,-384,-44,369
I,1,1248,891,844,288,2592,0,0,1,1,0,0,15624,8388,-4152,-425,-304,76
I,1,1239,717,862,304,2539,1,1,1,1,0,0,15200,8480,-4000,-679,-183,-2
I,1,1318,777,763,277,2602,1,1,1,1,0,0,15512,8524,-3680,-157,-214,-98
I,1,1330,785,752,247,2559,1,1,1,1,0,0,15264,8560,-4528,-717,-839,45
I,1,1285,851,720,294,2559,1,1,1,1,0,0,15240,8724,-4804,-234,-16,379
I,1,1333,735,689,259,2602,0,1,1,1,0,0,15496,8216,-4060,-532,-64,334
I,1,1201,701,1002,429,2437,1,1,1,1,0,0,15264,8200,-4408,-1249,-292,190
I,1,1353,794,773,241,2545,1,1,1,1,0,0,15584,8152,-3944,-312,95,34
I,1,1314,770,780,282,2554,1,1,1,1,0,0,15448,8068,-3648,-567,-480,-362
I,1,1236,791,743,285,2535,1,1,1,1,0,0,15428,8676,-3852,146,-268,-257
I,1,1349,745,816,315,2543,1,1,1,1,0,0,15388,8644,-4224,-200,-555,-162
I,1,1340,834,687,208,2608,1,1,1,1,0,0,15276,8772,-4636,4,-416,-59
I,1,1305,783,764,243,2557,1,1,1,1,0,0,15404,8368,-4604,-395,-343,108
I,1,1322,746,763,283,2583,0,1,1,1,0,0,15316,8484,-4496,-488,-432,110
I,1,1247,853,799,267,2559,1,1,1,1,0,0,15368,8484,-4416,-174,36,76
I,1,1300,804,739,332,2544,1,1,1,1,0,0,15268,8536,-4200,-656,-205,-56
I,1,1446,875,640,183,2682,1,1,1,1,0,0,15240,8636,-4228,-231,-329,78
I,1,1306,757,794,327,2559,1,1,1,1,0,0,15068,8480,-4328,-997,-531,237
I,1,1342,767,734,304,2559,0,1,1,1,0,0,15064,8480,-4420,-378,-432,269
I,1,1393,761,799,259,2559,1,1,1,1,0,0,15524,8508,-4316,-394,-573,43
I,1,1333,768,843,138,2598,0,1,1,1,0,0,15452,8576,-4512,-242,-416,174
I,1,1241,704,801,386,2551,0,1,1,1,0,0,15316,8316,-4556,-499,-265,90
I,1,1307,815,759,284,2559,1,1,1,1,0,0,15484,8316,-4472,-39,-235,32
I,1,1313,781,779,283,2559,1,1,1,1,0,0,15200,8656,-4904,-773,-415,47
I,1,1315,767,739,281,2559,1,1,1,1,0,0,15296,8376,-4504,-205,26,165
I,1,1414,805,557,331,2608,1,1,1,1,0,0,15200,8588,-4712,-994,-298,260
I,1,1355,816,703,241,2558,1,1,1,1,0,0,15132,8368,-4420,-712,133,148
I,1,1311,818,752,281,2549,1,1,1,1,0,0,15296,8532,-4412,-1037,-412,172
I,1,1325,779,763,308,2559,0,1,1,1,0,0,14728,9312,-4644,-649,141,903
I,1,1232,766,674,240,2626,1,1,1,1,0,0,15264,8620,-3864,206,179,1554
I,1,1277,819,754,225,2595,0,1,1,1,0,0,15620,7720,-4404,-1250,-1078,1371
I,1,1304,753,817,343,2645,1,1,1,1,0,0,16232,6400,-4740,-671,-538,477
I,1,1361,772,736,304,2593,1,1,1,1,0,0,16140,6704,-4468,-1198,-109,-1112
I,1,1274,766,768,292,2559,1,1,1,1,0,0,15864,8828,-4292,603,55,-1000
I,1,1313,816,783,247,2593,1,1,1,1,0,0,15092,9328,-5120,-239,-209,-122
I,1,1274,798,875,298,2559,0,0,1,1,0,0,14628,9136,-5180,-879,263,541
I,1,1294,639,872,338,2554,1,1,1,1,0,0,15332,8032,-3944,-760,505,33
I,1,1303,784,737,281,2585,1,1,1,1,0,0,15508,8088,-3864,-1146,-678,418
I,1,1318,790,742,277,2559,0,0,1,1,0,0,15428,8084,-4568,-768,-342,108
I,1,1307,752,743,245,2554,1,1,1,1,0,0,15364,7876,-3836,-482,-155,-377
I,1,1350,657,718,439,2666,0,1,1,1,0,0,15388,8676,-3992,-630,-763,-242
I,1,1287,783,637,336,2586,1,1,1,1,0,0,15284,8568,-4544,480,-257,113
I,1,1315,780,754,256,2582,1,1,1,1,0,0,15092,8688,-5388,-723,-792,426
I,1,1313,766,758,267,2555,0,0,1,1,0,0,15304,8444,-4840,-954,-431,422
I,1,1527,693,619,347,2614,1,1,1,1,0,0,15380,7780,-4240,-1975,-178,-169
I,1,1420,864,563,252,2624,1,1,1,1,0,0,15416,8644,-4196,-1307,-458,22
I,1,1313,745,755,326,2596,1,1,1,1,0,0,15464,8844,-4472,-131,245,522
I,1,1331,754,734,272,2593,1,1,1,1,0,0,15276,8416,-4868,-682,-23,771
I,1,1304,797,731,207,2559,1,1,1,1,0,0,15120,7636,-4496,-1097,35,382
I,1,1311,781,734,399,2608,1,1,1,1,0,0,15624,7688,-3252,-968,-355,-467
I,1,1344,653,690,406,2667,0,1,1,1,0,0,15508,7932,-3220,554,-915,-465
I,1,1307,905,774,464,2559,1,1,1,1,0,0,15280,8704,-4596,177,-1031,-68
I,1,1296,746,783,315,2559,1,1,1,1,0,0,14972,8680,-5112,938,-370,209
I,1,1313,783,758,291,2559,0,1,1,1,0,0,15172,8624,-4772,538,-420,-6
I,1,1349,731,676,275,2608,1,1,1,1,0,0,15264,8912,-5288,-108,-254,342
I,1,1263,816,901,294,2529,0,0,1,1,0,0,15280,8664,-5324,-487,73,767
I,1,1281,725,750,272,2558,1,1,1,1,0,0,15280,8664,-5324,-487,73,767
I,1,1264,750,758,272,2606,1,1,1,1,0,0,15280,8664,-5324,-487,73,767
I,1,1307,808,781,274,2596,1,1,1,1,0,0,15280,8664,-5324,-487,73,767
I,1,1309,763,704,286,2559,1,1,1,1,0,0,15280,8664,-5324,-487,73,767
I,1,1273,784,779,177,2559,0,1,1,1,0,0,15280,8664,-5324,-487,73,767
I,1,1330,855,771,307,2549,1,1,1,1,0,0,15280,8664,-5324,-487,73,767
I,1,1212,777,775,257,2559,0,1,1,1,0,0,15280,8664,-5324,-487,73,767
I,1,1284,843,703,202,2599,1,1,1,1,0,0,15280,8664,-5324,-487,73,767
I,1,1296,591,765,364,2543,0,1,1,1,0,0,15280,8664,-5324,-487,73,767
I,1,1571,770,717,271,2602,1,1,1,1,0,0,15280,8664,-5324,-487,73,767
I,1,1287,767,739,253,2558,1,1,1,1,0,0,15280,8664,-5324,-487,73,767
I,1,1277,771,752,287,2593,1,1,1,1,0,0,15280,8664,-5324,-487,73,767
I,1,1290,782,756,293,2557,0,1,1,1,0,0,15280,8664,-5324,-487,73,767
I,1,1282,785,768,289,2539,1,1,1,1,0,0,15280,8664,-5324,-487,73,767
I,1,1223,784,823,277,2589,0,1,1,1,0,0,15092,8300,-3600,489,2784,-685
I,1,1174,763,896,336,2514,1,1,1,1,0,0,15884,8608,-2288,-2263,1194,46
I,1,1307,760,647,318,2623,0,1,1,1,0,0,16072,6724,-1880,-1998,-1055,485
I,1,1254,752,773,306,2594,0,1,1,1,0,0,16316,7044,-2456,-3386,-3285,379
I,1,1273,793,785,272,2559,1,1,1,1,0,0,16416,7972,-3860,-1536,-3092,1299
I,1,1307,809,459,169,2589,0,1,1,1,0,0,15940,7728,-5004,-1242,-628,2211
I,1,1219,886,774,190,2579,1,1,1,1,0,0,15740,5508,-4828,-609,-2420,1701
I,1,1272,715,539,315,2502,0,1,1,1,0,0,15820,5852,-6044,-1338,-2428,-1264
I,1,1266,778,734,304,2559,1,1,1,1,0,0,15368,8228,-5748,-1611,-1111,-1400
I,1,1263,781,749,269,2601,1,1,1,1,0,0,15172,8356,-5356,-1256,-734,106
I,1,1275,1292,773,307,2559,0,1,1,1,0,0,15092,7924,-5060,-1316,-1025,1245
I,1,1343,784,619,176,2675,1,1,1,1,0,0,15664,6704,-5248,-1133,-1619,1300
I,1,1197,817,788,258,2642,0,1,1,1,0,0,15828,6544,-6268,-1463,-1320,64
I,1,1246,762,784,276,2582,0,1,1,1,0,0,15868,7224,-5480,185,114,149
I,1,1260,784,779,299,2559,1,1,1,1,0,0,15976,6540,-5456,-635,-845,321
I,1,1184,880,1200,144,2539,0,1,1,1,0,0,16044,6504,-5876,429,-623,446
I,1,1108,765,829,295,2532,1,1,1,1,0,0,16172,6464,-6200,-906,-492,447
I,1,893,789,681,287,2631,1,1,1,1,0,0,15904,6688,-5968,-1431,235,-14
I,1,1271,768,749,281,2586,0,1,1,1,0,0,16760,6316,-6024,-2392,-499,-530
I,1,1264,767,775,277,2559,1,1,1,1,0,0,16672,6116,-8224,-3294,-15,-542
I,1,1758,807,791,289,2522,0,1,1,1,0,0,15672,6824,-7160,-2010,2376,-2041
I,1,1360,878,598,190,2674,1,1,1,1,0,0,15740,7724,-4784,-3880,2575,-1969
I,1,1258,739,731,237,2592,0,1,1,1,0,0,15508,7684,-2372,-2439,2575,-1422
I,1,1258,797,782,268,2559,1,1,1,1,0,0,15340,8064,-1284,-2062,1071,-2134
I,1,1232,766,752,281,2559,1,1,1,1,0,0,15408,9484,-1356,-1208,-734,-1476
I,1,1221,825,795,217,2529,1,1,1,1,0,0,14840,9968,-2712,377,-1999,-578
I,1,1179,770,930,272,2539,1,1,1,1,0,0,14544,9968,-3924,771,-1596,550
I,1,1296,822,755,295,2559,1,1,1,1,0,0,15060,8724,-4424,1810,-1006,435
I,1,1245,781,774,271,2559,1,1,1,1,0,0,15132,8528,-5468,-40,-1750,235
I,1,1266,771,773,289,2559,1,1,1,1,0,0,15176,8524,-5468,534,-813,449
I,1,1280,730,747,334,2608,0,1,1,1,0,0,15548,8056,-5124,-168,-159,317
I,1,1327,769,707,282,2625,1,1,1,1,0,0,15840,7988,-4908,-170,-897,468
I,1,1279,800,802,186,2559,1,1,1,1,0,0,15324,7884,-6008,-900,-433,655
I,1,1296,789,767,285,2559,1,1,1,1,0,0,15292,7708,-5052,-541,551,213
I,1,1305,809,779,279,2624,1,1,1,1,0,0,15428,7956,-4320,-937,-508,-227
I,1,1296,750,811,225,2606,0,1,1,1,0,0,15268,7872,-4012,-1035,-500,-391
I,1,1262,767,796,310,2542,1,1,1,1,0,0,15400,8188,-3280,-87,-813,-560
I,1,1245,755,787,297,2589,1,1,1,1,0,0,15068,9060,-4848,-1023,-1854,-454
I,1,1267,789,768,279,2559,0,1,1,1,0,0,14844,8932,-5392,469,-914,216
I,1,1259,784,900,270,2559,1,1,1,1,0,0,15000,8224,-5772,-296,-1173,56
I,1,1236,758,808,336,2547,1,1,1,1,0,0,14896,9008,-5580,-485,-385,76
I,1,1322,826,689,208,2592,1,1,1,1,0,0,15096,8236,-4876,-562,-578,444
I,1,1269,773,810,313,2559,1,1,1,1,0,0,15340,8376,-5096,-1148,-1177,274
I,1,1265,794,780,276,2559,1,1,1,1,0,0,15216,8060,-5292,-858,-804,573
I,1,1281,751,854,272,2559,1,1,1,1,0,0,15064,7628,-5116,-710,-691,316
I,1,1253,767,784,310,2603,0,1,1,1,0,0,14980,7948,-5336,-621,-775,-459
I,1,1250,688,766,384,2598,0,1,1,1,0,0,14928,8432,-5652,-466,-734,-817
I,1,1242,747,783,276,2556,1,1,1,1,0,0,14904,8780,-5740,-545,-443,-486
I,1,1264,784,789,255,2587,1,1,1,1,0,0,14764,8536,-5644,-1264,-616,-285
I,1,1271,781,759,13,2559,1,1,1,1,0,0,14936,8508,-5476,-1374,-918,-206
I,1,1301,745,727,211,2608,1,1,1,1,0,0,14776,8408,-4864,-189,-87,-710
I,1,1164,983,764,94,2559,1,1,1,1,0,0,14840,8536,-4756,1662,-351,-929
I,1,1259,733,726,291,2586,1,1,1,1,0,0,14616,9000,-6224,312,-934,-756
I,1,1241,756,761,288,2583,0,1,1,1,0,0,14284,9496,-6040,826,-53,-214
I,1,1238,946,759,227,2587,1,1,1,1,0,0,14520,8852,-5680,693,-325,-121
I,1,1231,867,753,176,2629,0,1,1,1,0,0,14412,9264,-6228,-552,-545,294
I,1,1215,802,789,272,2559,0,1,1,1,0,0,14520,8408,-6324,-145,138,513
I,1,1264,778,777,277,2559,1,1,1,1,0,0,14644,8444,-6736,-1590,94,363
I,1,1267,754,775,281,2585,1,1,1,1,0,0,14504,8632,-6068,-763,985,390
I,1,1229,769,752,304,2598,1,1,1,1,0,0,14620,8308,-4636,264,2149,-132
I,1,1402,636,755,427,2593,0,1,1,1,0,0,15268,8712,-5080,-691,1646,-445
I,1,1533,780,786,208,2589,1,1,1,1,0,0,15048,9208,-5636,-1092,-728,661
I,1,1273,783,758,256,2551,1,1,1,1,0,0,14732,8752,-5904,-1689,-509,770
I,1,1264,778,771,287,2579,1,1,1,1,0,0,15200,8980,-5032,-1132,-528,1301
I,1,1264,975,718,260,2607,1,1,1,1,0,0,14484,7136,-4788,-1466,-1899,463
I,1,1259,879,816,153,2498,1,1,1,1,0,0,15068,7992,-5176,-381,-687,131
I,1,1232,739,773,208,2537,1,1,1,1,0,0,14900,8444,-5720,-487,327,-282
I,1,1266,770,751,262,2559,1,1,1,1,0,0,14712,8844,-5256,-303,239,-80
I,1,1264,799,751,284,2559,0,1,1,1,0,0,14460,8780,-5188,-223,22,149
I,1,1253,768,752,272,2535,1,1,1,1,0,0,14536,8896,-5152,-87,-167,393
I,1,1322,782,670,238,2641,1,1,1,1,0,0,14740,8500,-5052,-40,-254,386
I,1,1313,808,799,272,2620,1,1,1,1,0,0,14816,8464,-5716,248,-12,435
I,1,1291,784,765,273,2559,1,1,1,1,0,0,14524,8256,-4028,-192,1189,172
I,1,1267,778,754,269,2587,1,1,1,1,0,0,15316,7796,-5892,223,-212,-53
I,1,1271,814,767,422,2555,1,1,1,1,0,0,15196,8280,-5748,-806,-647,-339
I,1,1177,753,871,331,2553,0,1,1,1,0,0,14860,8140,-6336,-577,-395,-255
I,1,1275,763,545,289,2586,1,1,1,1,0,0,14692,8372,-6140,-426,-89,-98
I,1,1254,771,777,304,2559,1,1,1,1,0,0,14724,8304,-5636,-532,458,-435
I,1,1231,766,767,283,2559,0,0,1,1,0,0,14688,8572,-5364,-300,630,-455
I,1,1205,773,759,284,2559,1,1,1,1,0,0,14640,8356,-5664,28,1061,-406
I,1,1217,879,833,160,2487,1,1,1,1,0,0,14416,8612,-5388,-901,-469,-301
I,1,1234,752,778,505,2559,1,1,1,1,0,0,14944,8956,-5128,-89,-656,29
I,1,1230,737,766,304,2557,1,1,1,1,0,0,14964,8720,-5380,-892,-776,326
I,1,1216,773,720,176,2554,1,1,1,1,0,0,14892,8572,-5360,-145,-418,263
I,1,1132,695,711,291,2559,1,1,1,1,0,0,14656,8500,-5524,-520,-636,76
I,1,1232,719,749,333,2592,1,1,1,1,0,0,15008,8768,-5784,-40,-574,303
I,1,1166,822,794,471,2580,1,1,1,1,0,0,14784,8056,-5992,-430,-157,404
I,1,1235,767,763,309,2585,1,1,1,1,0,0,14024,8280,-5112,-55,134,-984
I,1,1299,775,707,261,2559,0,1,1,1,0,0,15156,10504,-4392,528,-474,-109
I,1,1296,773,774,272,2586,1,1,1,1,0,0,14944,8632,-6404,-1730,-1906,2061
I,1,1246,656,753,416,2592,0,0,1,1,0,0,14200,7320,-7936,-3698,-1020,908
I,1,1231,807,784,273,2559,1,1,1,1,0,0,14372,8008,-5424,213,1477,-1035
I,1,1212,777,779,311,2559,1,1,1,1,0,0,15892,9020,-3928,160,-250,-328
I,1,1244,766,735,288,2630,0,1,1,1,0,0,14732,7740,-6120,-2191,-1614,1013
I,1,1264,852,686,289,2525,1,1,1,1,0,0,13824,7680,-5492,524,700,-828
I,1,1136,715,912,304,2446,0,0,1,1,0,0,14740,10072,-4640,997,-144,-1213
I,1,1247,778,759,274,2559,1,1,1,1,0,0,14808,10084,-6424,-409,-1922,1056
I,1,1261,802,758,304,2559,1,1,1,1,0,0,14724,8092,-6860,-323,-25,1887
I,1,1248,775,727,45,2559,0,1,1,1,0,0,15564,7084,-6624,-1052,-126,991
I,1,1310,776,715,191,2594,1,1,1,1,0,0,14620,6612,-6140,-1422,116,-858
I,1,1239,825,763,210,2585,0,1,1,1,0,0,14516,9516,-4076,-312,678,-2126
I,1,1242,769,784,323,2584,0,1,1,1,0,0,15104,10636,-5172,496,-1421,663
I,1,1297,762,753,253,2559,1,1,1,1,0,0,14772,8984,-7992,-2726,-1294,2166
I,1,1271,756,752,156,2581,0,1,1,1,0,0,13560,6104,-6776,-916,1092,579
I,1,1216,807,752,313,2525,1,1,1,1,0,0,14508,8500,-3260,132,1481,-2194
I,1,1312,842,709,178,2559,1,1,1,1,0,0,15608,10704,-3928,837,-2219,70
I,1,1310,787,763,319,2559,1,1,1,1,0,0,15112,8824,-7948,-1625,-1854,1973
I,1,1253,768,762,275,2554,1,1,1,1,0,0,14340,6608,-7680,-894,904,1432
I,1,1247,773,801,266,2580,0,1,1,1,0,0,14696,7464,-4876,132,1255,-1703
I,1,1263,682,948,358,2559,0,1,1,1,0,0,15112,10492,-4288,-271,-1046,-549
I,1,1349,800,681,240,2650,1,1,1,1,0,0,14672,9148,-6916,-523,-714,1794
I,1,1268,782,752,244,2594,1,1,1,1,0,0,14764,7168,-7084,-824,441,1345
I,1,1264,743,747,294,2586,1,1,1,1,0,0,14468,7248,-4712,-327,910,-804
I,1,1296,784,759,288,2559,1,1,1,1,0,0,15044,9572,-3476,793,-246,-1175
I,1,1217,697,963,211,2522,1,1,1,1,0,0,14936,9428,-6236,-366,-2153,1063
I,1,1281,718,688,268,2605,1,1,1,1,0,0,14904,8044,-8088,-983,-231,1699
I,1,1235,821,777,291,2559,1,1,1,1,0,0,15360,6188,-6172,386,1061,677
I,1,1245,771,808,304,2547,1,1,1,1,0,0,15056,6656,-4712,517,681,-1463
I,1,1313,777,731,244,2595,0,1,1,1,0,0,14880,9496,-4744,536,63,-1752
I,1,1227,810,782,247,2592,1,1,1,1,0,0,14900,9976,-6376,535,-639,254
I,1,1355,691,772,259,2586,1,1,1,1,0,0,14520,8204,-7200,-965,3,1211
I,1,1293,805,752,272,2559,1,1,1,1,0,0,14528,7588,-5428,-738,830,-455
I,1,1287,773,746,272,2587,1,1,1,1,0,0,15200,8860,-4224,-836,-66,-721
I,1,1243,780,816,314,2588,0,1,1,1,0,0,14900,8860,-5704,-1288,-1468,498
I,1,1310,843,674,213,2590,1,1,1,1,0,0,14572,8312,-6524,-1131,-726,1012
J,1,1199,742,751,346,2590,1,1,1,1,1,0,15452,8116,-4680,-616,-302,-103
J,1,1211,797,663,305,2605,1,1,1,1,1,0,15556,8656,-4736,-797,-289,-74
J,1,1243,759,728,326,2590,1,1,1,1,1,0,15448,9660,-4708,-1568,-1491,-36
J,1,1157,592,669,500,2679,0,1,1,1,1,0,15228,10024,-4884,-2600,-3368,-983
J,1,1125,763,816,305,2559,1,1,1,1,1,0,12952,9028,-4108,-1698,-5659,412
J,1,1085,739,741,317,2581,1,1,1,1,1,0,11188,4492,-2972,2286,-9373,282
J,1,1125,719,688,212,2559,1,1,1,1,1,0,9672,5228,-4016,2617,-14251,-936
J,1,1086,743,762,285,2615,1,1,1,1,1,0,11060,4980,-7940,7497,-14972,-682
J,1,1034,751,797,334,2555,0,1,1,1,1,0,14168,6728,-9200,10688,-11718,541
J,1,1022,686,771,355,2597,1,1,1,1,1,0,16612,3524,-11408,16343,-9525,-2513
J,1,1023,750,772,385,2601,1,1,1,1,1,0,15588,4504,-12244,16930,-5227,-3900
J,1,1009,725,703,351,2556,0,1,1,1,1,0,13440,4524,-16944,15624,-3665,-9064
J,1,1019,662,749,198,2554,1,1,1,1,1,0,13292,1592,-12716,17545,4642,-12532
J,1,1133,829,667,141,2614,1,1,1,1,1,0,12436,3444,-18092,14028,775,-15041
J,1,1109,729,769,131,2551,0,1,1,1,1,0,11692,6240,-23736,-2342,2309,-13436
J,1,1161,727,687,312,2593,1,1,1,1,1,0,10996,5464,-23468,-10316,5414,-9738
J,1,1123,772,624,191,2559,1,1,1,1,1,0,11128,5544,-17656,-11372,12447,-6146
J,1,1088,638,748,280,2605,1,1,1,1,1,0,10808,3300,-15568,-15011,11919,-4814
J,1,1296,785,639,222,2620,1,1,1,1,1,0,10268,4900,-12044,-16710,10076,-4707
J,1,1226,770,720,257,2557,0,1,1,1,1,0,9428,5972,-8676,-13162,10267,-3688
J,1,1123,757,754,335,2559,1,1,1,1,1,0,9448,4424,-5964,-7246,7935,-3625
J,1,1469,748,721,330,2607,0,1,1,1,1,0,9632,7076,-3508,-6113,6190,-3133
J,1,1165,880,592,131,2665,1,1,1,1,1,0,9320,8568,-2240,-4032,3252,-2058
J,1,1086,790,749,145,2589,1,1,1,1,1,0,9052,9652,-2060,-2304,768,-146
J,1,1090,707,753,322,2618,1,1,1,1,1,0,9732,10768,-3092,-293,-1672,2819
J,1,1073,752,718,273,2559,1,1,1,1,1,0,11148,11636,-4664,825,-2567,4618
J,1,1023,750,754,304,2559,0,1,1,1,1,0,12988,11148,-6012,-28,-3454,5863
J,1,1104,638,783,324,2559,0,1,1,1,1,0,14604,11160,-7984,-3364,-3914,6086
J,1,1139,793,624,213,2608,1,1,1,1,1,0,16696,11756,-8480,-7038,-3328,4474
J,1,1031,756,770,332,2559,1,1,1,1,1,0,17380,14064,-8804,-10238,-1970,3119
J,1,1078,742,769,314,2559,1,1,1,1,1,0,17256,12236,-5976,-9185,206,2589
J,1,1058,730,674,243,2605,0,1,1,1,1,0,16864,8920,-2920,-6576,183,2113
J,1,899,765,940,580,2400,1,1,1,1,1,0,15264,7736,-1728,-6415,-973,-759
J,1,1086,624,739,401,2608,1,1,1,1,1,0,14112,5724,-2264,-6480,-3184,-2066
J,1,1157,761,775,247,2559,1,1,1,1,1,0,13620,7820,-2440,-6215,-2015,-1737
J,1,1135,720,758,325,2581,1,1,1,1,1,0,12952,8712,-2148,-2311,-231,-1478
J,1,894,720,789,241,2559,1,1,1,1,1,0,13016,10148,-1552,-2636,-436,-808
J,1,1162,861,818,51,2617,1,1,1,1,1,0,12184,10552,-1628,-1761,-445,148
J,1,1122,771,746,222,2559,1,1,1,1,1,0,12524,11144,-1856,-5,-749,2039
J,1,1183,737,752,215,2559,1,1,1,1,1,0,13228,11328,-1804,474,-661,2425
J,1,1159,800,738,272,2586,1,1,1,1,1,0,13020,10048,-1540,2702,-1933,3898
J,1,1174,739,705,303,2511,0,1,1,1,1,0,12180,7216,-1892,4639,-4556,3287
J,1,1287,785,641,289,2626,1,1,1,1,1,0,12316,6440,-2828,3861,-8074,2587
J,1,1124,788,593,310,16,1,1,1,1,1,0,13008,7660,-5236,3476,-12342,279
J,1,1137,743,745,288,2582,1,1,1,1,1,0,13124,7960,-6984,7176,-13674,1048
J,1,1108,720,735,326,2602,1,1,1,1,1,0,11552,8152,-7028,11165,-13726,3209
J,1,936,663,817,336,2516,0,0,1,1,1,0,13332,5280,-13420,13590,-13166,1223
J,1,960,624,796,400,2586,1,1,1,1,1,0,16288,3516,-13940,15153,-6239,-653
J,1,954,862,837,146,2583,1,1,1,1,1,0,13860,7016,-14356,15403,-2213,-1266
J,1,932,721,741,289,220,1,1,1,1,1,0,14424,3208,-14956,16692,-1556,-7240
J,1,1003,763,739,214,183,1,1,1,1,1,0,13800,1884,-16524,9404,-1127,-9449
J,1,957,637,757,256,1634,1,1,1,1,1,0,10596,6604,-18216,108,1223,-10256
J,1,975,631,768,480,336,0,1,1,1,1,0,11300,7472,-17764,817,4703,-7680
J,1,975,1318,775,259,201,1,1,1,1,1,0,11932,4584,-16328,-3036,7207,-4582
J,1,995,724,783,320,481,1,1,1,1,1,0,11764,3908,-15292,-6003,8146,-4429
J,1,1023,754,813,257,251,1,1,1,1,1,0,12364,4440,-13076,-7160,8970,-4042
J,1,1062,786,731,211,94,1,1,1,1,1,0,11592,5156,-11592,-8056,8626,-3469
J,1,1035,896,832,112,65,1,1,1,1,1,0,12088,5868,-10112,-7543,6917,-2310
J,1,1098,777,753,286,258,1,1,1,1,1,0,12568,7076,-9576,-9347,6111,-2222
J,1,1070,782,765,240,2559,1,1,1,1,1,0,12416,6744,-7856,-5651,5844,-1181
J,1,1072,561,750,304,2598,1,1,1,1,1,0,12908,5984,-6228,-2592,4551,-1394
J,1,1148,655,702,398,2607,0,1,1,1,1,0,12280,7280,-5176,-3346,2189,-2083
J,1,1133,807,611,176,2635,1,1,1,1,1,0,10932,8228,-4420,754,428,225
J,1,940,720,761,274,2584,1,1,1,1,1,0,11564,6020,-4076,4998,-450,2227
J,1,998,768,764,309,2582,1,1,1,1,1,0,11408,6640,-6692,830,-3998,2169
J,1,931,832,699,307,2585,1,1,1,1,1,0,12624,8752,-9848,-4250,-5293,2862
J,1,1001,790,725,257,2553,0,1,1,1,1,0,15160,11008,-11808,-6674,-4784,3260
J,1,1063,720,618,215,2626,1,1,1,1,1,0,16744,11728,-13044,-12025,-2344,2028
J,1,944,836,684,208,2593,1,1,1,1,1,0,16732,12176,-10720,-13523,-815,3383
J,1,1007,710,736,276,2559,0,1,1,1,1,0,16080,8824,-7744,-9080,4656,3519
J,1,907,634,749,291,2595,1,1,1,1,1,0,15316,5652,-4208,-10263,5298,1382
J,1,995,770,755,303,2621,0,1,1,1,1,0,14356,6752,-1528,-11306,3732,-62
J,1,1079,695,750,348,2558,1,1,1,1,1,0,13700,7472,116,-7044,3278,-297
J,1,1020,833,742,295,2558,1,1,1,1,1,0,14320,8224,676,-4125,1683,-181
J,1,1067,765,725,285,2559,1,1,1,1,1,0,14580,9412,-156,-3986,921,-350
J,1,1078,774,721,233,2504,1,1,1,1,1,0,14648,9920,-1012,-2111,430,308
J,1,1043,821,666,318,2559,1,1,1,1,1,0,15780,9764,-268,-780,605,615
J,1,1017,694,823,355,2534,1,1,1,1,1,0,15008,9752,-1228,-2237,-76,-746
J,1,1110,770,635,293,2553,1,1,1,1,1,0,14916,9456,-820,269,-801,-518
J,1,1147,742,734,243,2583,1,1,1,1,1,0,14364,10224,-1216,-919,-729,-271
J,1,1171,704,789,323,2559,1,1,1,1,1,0,14372,9436,-1756,-1048,-1033,-138
J,1,1101,1005,700,91,2496,1,1,1,1,1,0,14740,10388,-1672,-921,-568,410
J,1,1168,687,781,406,2556,1,1,1,1,1,0,14724,10264,-1272,-365,-348,192
J,1,1171,817,746,299,2559,1,1,1,1,1,0,14364,10272,-976,-16,-945,1232
J,1,1167,763,755,321,2559,1,1,1,1,1,0,12928,8264,32,1749,-2034,1957
J,1,1165,721,747,280,2558,1,1,1,1,1,0,12456,6864,-72,3074,-6804,1456
J,1,1072,931,779,208,2492,1,1,1,1,1,0,12312,9200,-1348,4090,-10530,1445
J,1,1004,697,822,363,2559,1,1,1,1,1,0,13904,6880,-3536,9189,-12560,1160
J,1,954,761,807,256,224,1,1,1,1,1,0,13944,7708,-6524,5664,-14819,-38
J,1,946,737,766,308,2548,1,1,1,1,1,0,14296,7548,-10520,7543,-13491,-2073
J,1,1040,789,652,239,2608,1,1,1,1,1,0,15064,6976,-10548,12199,-6565,-135
J,1,893,918,718,192,2553,1,1,1,1,1,0,14484,6860,-11400,13091,-3183,-811
J,1,1099,671,583,465,2559,1,1,1,1,1,0,15352,3780,-12972,12830,-1126,-3750
J,1,915,743,704,234,2543,1,1,1,1,1,0,14584,4244,-11840,10603,273,-5023
J,1,944,749,708,272,2587,1,1,1,1,1,0,12912,7744,-15960,3998,-612,-8195
J,1,945,709,726,306,2559,1,1,1,1,1,0,12452,9580,-16068,2355,3964,-5846
J,1,981,831,752,163,2559,1,1,1,1,1,0,12152,6684,-13584,3740,7270,-3194
J,1,975,740,645,329,2664,0,1,1,1,1,0,12548,5020,-12644,-1426,6780,-3642
J,1,999,778,758,317,2559,1,1,1,1,1,0,12508,7096,-12504,-4280,5977,-4226
J,1,1023,766,715,238,2559,1,1,1,1,1,0,12428,7480,-10956,-3654,6743,-2458
J,1,827,731,736,272,2538,1,1,1,1,1,0,13200,7696,-9660,-6523,6014,-3046
J,1,853,688,921,321,2527,1,1,1,1,1,0,13548,7204,-8824,-4978,4938,-2293
J,1,971,749,656,242,2595,1,1,1,1,1,0,13276,7208,-8072,-4716,4803,-2862
J,1,1043,751,710,335,2592,1,1,1,1,1,0,12492,7116,-6652,-4685,3440,-2528
J,1,1023,752,689,279,2579,1,1,1,1,1,0,11892,8136,-5828,-3387,2428,-1440
J,1,1168,735,674,598,2583,1,1,1,1,1,0,12336,7888,-5468,-1497,1611,-644
J,1,1081,717,745,336,2599,1,1,1,1,1,0,12780,8024,-6004,-1285,286,-293
J,1,1050,794,683,175,2606,1,1,1,1,1,0,13280,9792,-6712,-3024,-790,-21
J,1,1054,759,699,273,2594,1,1,1,1,1,0,13744,9744,-6752,-2231,41,1249
J,1,1023,754,721,638,2603,0,0,1,1,1,0,14732,9276,-7092,-2671,542,1221
J,1,1049,782,704,240,2587,1,1,1,1,1,0,14624,10556,-8036,-7374,629,-92
J,1,1023,816,768,182,2559,1,1,1,1,1,0,14536,10936,-6628,-8430,1170,1103
J,1,1082,752,670,418,2814,1,1,1,1,1,0,13916,10108,-4624,-7390,592,2312
J,1,1055,742,721,286,2559,1,1,1,1,1,0,13316,8784,-3144,-6943,-1095,1763
J,1,1022,751,704,304,2559,0,1,1,1,1,0,12920,9916,-2868,-7291,-1783,1509
J,1,1091,607,583,527,2692,1,1,1,1,1,0,13900,9036,-3364,-5981,-1408,2277
J,1,1174,821,618,130,2614,1,1,1,1,1,0,15044,8888,-3700,-6448,-1164,2371
J,1,1073,878,717,360,2559,1,1,1,1,1,0,15732,9152,-2936,-5403,258,2278
J,1,1068,745,770,282,2559,1,1,1,1,1,0,16072,8808,-1260,-2728,1718,2327
J,1,1051,797,716,273,2531,1,1,1,1,1,0,16384,8404,-676,-3038,849,1178
J,1,1050,739,685,224,2547,1,1,1,1,1,0,15660,9544,-904,-3309,285,-249
J,1,1280,832,495,94,2705,1,1,1,1,1,0,15560,9896,-1004,-1641,324,-64
J,1,1111,737,720,643,2559,1,1,1,1,1,0,15012,9480,-1236,-1548,-630,-30
J,1,1066,718,719,301,2591,1,1,1,1,1,0,14600,9752,-1104,-654,-1806,28
J,1,1053,767,816,178,2559,1,1,1,1,1,0,13192,9200,-1464,-496,-3702,213
J,1,922,709,867,510,2551,1,1,1,1,1,0,11840,8984,-656,3109,-6319,3297
J,1,1090,720,623,305,2635,1,1,1,1,1,0,14152,6740,-2884,3214,-7683,2469
J,1,1040,715,750,326,2585,1,1,1,1,1,0,15472,8704,-4652,698,-9565,705
J,1,977,767,699,277,2583,1,1,1,1,1,0,14884,9492,-5736,1403,-9931,477
J,1,889,789,669,320,2559,0,1,1,1,1,0,13188,6108,-5940,2464,-9865,1207
J,1,742,665,784,255,2552,1,1,1,1,1,0,12292,7016,-6332,3369,-11764,1276
J,1,970,720,696,319,2551,1,1,1,1,1,0,13084,3876,-7432,7768,-11558,1260
J,1,917,732,715,247,2598,1,1,1,1,1,0,13096,7080,-9552,6993,-9120,201
J,1,928,734,686,298,2585,1,1,1,1,1,0,15212,7040,-11372,10601,-6455,615
J,1,927,777,635,236,2614,0,1,1,1,1,0,15060,5364,-12356,9809,-3041,76
J,1,879,693,907,202,2557,0,1,1,1,1,0,16140,4344,-12844,9305,-2032,-2105
J,1,925,719,698,330,2559,1,1,1,1,1,0,13992,4804,-13252,6965,-829,-3638
J,1,899,762,723,250,2559,1,1,1,1,1,0,13376,5416,-14524,5831,584,-5258
J,1,942,768,752,304,2559,1,1,1,1,1,0,13584,4604,-13912,4982,2194,-5671
J,1,941,761,720,293,2559,1,1,1,1,1,0,12632,4820,-15168,399,5557,-6393
J,1,863,627,1087,258,2510,1,1,1,1,1,0,12444,6188,-14096,-1824,5910,-3743
J,1,911,620,762,241,2550,0,1,1,1,1,0,12892,4952,-12576,-2961,6830,-4027
J,1,912,758,725,224,2593,1,1,1,1,1,0,12164,4208,-11692,-3636,6462,-4064
J,1,958,784,720,246,2559,1,1,1,1,1,0,12260,5208,-11332,-5245,5562,-4274
J,1,1066,812,588,171,2551,0,1,1,1,1,0,11364,6796,-9916,-4261,5131,-2790
J,1,858,841,713,163,2605,1,1,1,1,1,0,11344,6632,-8904,-1694,4174,-835
J,1,1009,641,643,402,2555,1,1,1,1,1,0,11896,5644,-8076,-2249,2430,-88
J,1,961,736,722,285,2592,1,1,1,1,1,0,12164,6024,-9188,-2688,874,204
J,1,989,726,737,301,2553,1,1,1,1,1,0,13524,8052,-10456,-5073,812,-521
J,1,976,784,656,299,2559,1,1,1,1,1,0,14720,10536,-10004,-8794,1357,1660
J,1,889,788,848,237,2559,1,1,1,1,1,0,15408,8764,-9092,-12151,2593,1337
J,1,1071,686,537,511,2447,1,1,1,1,1,0,15584,9308,-7420,-14735,2358,1329
J,1,1040,762,674,300,2591,1,1,1,1,1,0,15036,8188,-6636,-11298,4793,1509
J,1,998,756,773,229,2585,1,1,1,1,1,0,14940,7560,-4200,-9802,5828,2737
J,1,954,736,719,316,2595,0,1,1,1,1,0,15048,7512,-1140,-8281,5937,1744
J,1,1174,753,603,280,2643,1,1,1,1,1,0,14896,7312,320,-5765,4657,1288
J,1,1003,645,884,494,2698,1,1,1,1,1,0,14724,8064,588,-5387,3186,428
J,1,978,754,740,277,2559,1,1,1,1,1,0,15060,8440,404,-3396,1827,997
J,1,1046,762,755,272,2582,1,1,1,1,1,0,15228,8004,348,-2297,1463,433
J,1,1008,742,509,304,2559,0,1,1,1,1,0,15692,8492,476,-933,-15,346
J,1,1226,845,473,223,2636,1,1,1,1,1,0,15660,9372,416,-1652,-323,-375
J,1,1051,923,686,272,2587,1,1,1,1,1,0,15208,9248,448,47,-1673,242
J,1,1034,758,699,280,2538,1,1,1,1,1,0,15044,8796,364,466,-2998,95
J,1,1023,784,749,241,2581,1,1,1,1,1,0,14276,9032,-588,227,-5421,341
J,1,1010,782,743,317,2531,0,1,1,1,1,0,15292,8400,-1828,-444,-5925,1190
J,1,1039,683,705,373,2614,1,1,1,1,1,0,15980,8068,-2608,-1495,-5431,1430
J,1,1010,589,704,240,2557,1,1,1,1,1,0,14980,8064,-2356,982,-6561,51
J,1,1018,743,693,247,2592,1,1,1,1,1,0,13612,7968,-2660,2652,-9855,415
J,1,958,720,713,320,2630,1,1,1,1,1,0,13208,8204,-3836,764,-12683,-266
J,1,981,757,717,240,2555,0,1,1,1,1,0,13548,7944,-5440,3197,-13021,991
J,1,1157,736,627,290,2642,1,1,1,1,1,0,14036,7984,-7660,3655,-9434,1204
J,1,829,723,703,291,2634,1,1,1,1,1,0,14748,6988,-7456,6578,-7672,2408
J,1,880,763,738,272,2559,1,1,1,1,1,0,15656,3996,-8520,9290,-8187,68
J,1,850,775,602,287,200,1,1,1,1,1,0,14020,5644,-9756,7325,-8402,-1951
J,1,832,839,753,378,226,1,1,1,1,1,0,13424,6536,-10196,11571,-6431,-3483
J,1,880,681,689,369,317,1,1,1,1,1,0,13776,4544,-13844,13315,-4419,-5299
J,1,889,769,800,256,369,1,1,1,1,1,0,13680,4644,-15416,7603,-175,-6736
J,1,892,777,701,301,2559,1,1,1,1,1,0,12824,7044,-17140,2420,-259,-6818
J,1,926,730,785,79,2602,1,1,1,1,1,0,12112,8432,-16640,-1642,4715,-4771
J,1,873,615,860,352,2587,1,1,1,1,1,0,11948,5844,-14980,1470,8442,-2570
J,1,986,741,586,208,2674,1,1,1,1,1,0,12672,5104,-12812,-1642,9240,-3331
J,1,924,752,711,192,2597,1,1,1,1,1,0,11760,4468,-12172,-2840,7979,-4026
J,1,933,741,688,266,2608,1,1,1,1,1,0,12144,6772,-10980,-2865,7197,-4695
J,1,929,719,678,297,2608,1,1,1,1,1,0,12484,6788,-10536,-3937,7324,-3849
J,1,945,660,855,297,2480,0,1,1,1,1,0,12412,6960,-8676,-4777,5146,-2810
J,1,987,563,635,561,2683,1,1,1,1,1,0,12520,8108,-7772,-4912,4551,-1789
J,1,971,722,725,320,2589,1,1,1,1,1,0,12332,7580,-7188,-3526,4087,-398
J,1,935,764,702,288,2559,1,1,1,1,1,0,12704,7640,-6800,-3024,2874,442
J,1,929,767,689,218,2585,1,1,1,1,1,0,13316,7168,-6376,-2007,1713,624
J,1,1040,742,734,0,2640,1,1,1,1,1,0,13556,7804,-7624,-3623,1005,-162
J,1,815,738,825,362,2531,1,1,1,1,1,0,14236,10276,-8776,-8291,697,-227
J,1,958,773,720,240,2558,1,1,1,1,1,0,14908,10628,-7744,-10468,1935,1421
J,1,951,765,699,301,2559,1,1,1,1,1,0,15500,9668,-5736,-14535,2756,1308
J,1,1023,749,616,378,2083,1,1,1,1,1,0,15500,9668,-5736,-14535,2756,1308
J,1,1137,805,643,204,2633,1,1,1,1,1,0,15008,9116,-1328,-8189,5022,3244
J,1,848,772,879,355,2506,1,1,1,1,1,0,14768,7864,776,-5704,3869,3304
J,1,930,748,701,278,2605,1,1,1,1,1,0,14492,8040,1916,-4542,1656,2903
J,1,967,789,761,270,2559,1,1,1,1,1,0,14556,7564,2056,-1313,247,2869
J,1,946,798,701,401,2594,1,1,1,1,1,0,15592,7368,896,-959,-1137,1986
J,1,1177,727,640,260,2621,1,1,1,1,1,0,16568,7996,188,420,-1193,924
K,1,472,702,1133,417,2667,1,1,0,1,1,1,17680,5244,2532,-623,-199,186
K,1,384,782,1182,379,2617,1,1,1,1,1,1,17368,4780,2132,-362,-817,917
K,1,384,655,1264,435,2635,1,1,1,1,1,1,17628,4292,1908,-68,34,425
K,1,418,642,1130,439,2635,1,1,0,1,1,1,17552,4720,2288,-558,214,3
K,1,400,701,1163,419,2624,1,1,1,1,1,1,17312,4804,2648,-289,-13,158
K,1,291,611,1289,528,2593,1,1,0,1,1,1,17520,4664,2472,-456,-305,-61
K,1,466,582,1129,448,2659,1,1,1,1,1,1,17632,4968,2404,-378,-458,224
K,1,343,691,1175,400,2436,1,1,1,1,1,1,17752,4768,2056,-732,-402,1
K,1,387,657,1179,448,2627,1,1,0,1,1,1,17712,4816,2120,-377,-482,78
K,1,413,677,1147,438,2610,1,1,1,1,1,1,17752,4764,1792,-582,-253,-43
K,1,1,720,1185,419,2679,1,1,0,1,1,1,17780,4948,2172,-369,-179,260
K,1,240,607,1360,554,2496,1,1,1,1,1,1,17496,4648,2120,-524,-179,280
K,1,1143,641,1191,443,2660,1,1,1,1,1,1,17528,4560,2292,-455,-208,111
K,1,383,677,1190,433,2625,1,1,0,1,1,1,17424,4636,2088,-62,-183,135
K,1,433,701,1239,437,2629,1,1,1,1,1,1,17456,5176,2044,-386,-95,146
K,1,481,687,1193,406,2623,1,1,0,1,1,1,17532,4892,2196,-135,-270,442
K,1,325,848,1264,275,2613,1,1,1,1,1,1,17556,4532,2044,-638,-289,79
K,1,398,679,1202,446,2622,1,1,1,1,1,1,17572,4784,2000,-347,-283,298
K,1,449,700,1168,409,2630,1,1,0,1,1,1,17712,4780,2124,-713,-19,51
K,1,457,714,1143,439,2624,1,1,1,1,1,1,17420,4800,1968,-701,-267,148
K,1,255,599,1264,488,2522,1,1,0,1,1,1,17840,4724,2004,-809,-155,121
K,1,305,647,1213,435,2551,1,1,1,1,1,1,17632,4524,2104,-443,99,188
K,1,492,672,1203,445,2627,1,1,1,1,1,1,17804,4372,2288,-374,-102,169
K,1,465,720,1138,415,2624,1,1,0,1,1,1,17672,4704,2316,-568,-364,-12
K,1,413,697,1167,426,2688,1,1,1,1,1,1,17544,4696,2552,228,-275,399
K,1,477,754,1178,340,2654,1,1,0,1,1,1,17304,4884,2352,-422,-571,157
K,1,348,761,1174,330,2621,1,1,1,1,1,1,17536,4744,2012,568,-427,352
K,1,438,667,1152,391,2635,1,1,1,1,1,1,17748,4956,1640,-294,-12,221
K,1,418,667,1163,366,2630,1,1,0,1,1,1,17876,4784,1944,-301,-119,446
K,1,431,635,1190,304,2660,1,1,1,1,1,1,17896,4248,1788,-662,112,-62
K,1,542,771,1071,304,2715,1,1,1,1,1,1,17480,4572,2308,-576,-165,128
K,1,407,747,1213,288,2605,1,1,1,1,1,1,17684,4532,2308,135,-232,230
K,1,379,686,1200,378,2665,1,1,1,1,1,1,17592,4928,2072,-552,-397,98
K,1,432,625,1179,389,2639,1,1,0,1,1,1,17444,4872,2188,21,-132,365
K,1,432,944,1247,404,2634,1,1,1,1,1,1,17740,4428,1976,-487,-491,63
K,1,432,562,1255,393,2636,1,1,0,1,1,1,17596,4452,1712,-500,-307,169
K,1,311,838,1335,315,2605,1,1,1,1,1,1,17652,4632,1936,-577,-232,222
K,1,444,687,1173,383,2624,1,1,1,1,1,1,17604,4592,2108,-448,-367,170
K,1,462,629,1203,388,2623,1,1,0,1,1,1,17628,4608,1848,-583,-364,219
K,1,406,670,1168,404,2544,1,1,1,1,1,1,17604,4468,1832,-727,-290,238
K,1,367,658,1105,481,2621,1,1,0,1,1,1,17820,4616,2080,-618,-122,-74
K,1,679,818,966,367,2645,1,1,1,1,1,1,17708,4708,2168,-550,-261,-2
K,1,423,653,1167,430,2624,1,1,1,1,1,1,17752,4568,2044,-257,-475,157
K,1,407,698,1152,382,2641,1,1,0,1,1,1,17820,4344,1892,-34,-328,24
K,1,404,685,1072,560,2623,1,1,1,1,1,1,17640,4840,2160,-176,-462,30
K,1,267,573,1429,395,2480,1,1,0,1,1,1,17600,4972,1872,-402,-415,82
K,1,487,564,1130,399,2637,1,1,1,1,1,1,17624,4828,1748,-473,-345,47
K,1,401,675,1188,382,2653,1,1,1,1,1,1,17624,4380,1928,-555,-310,35
K,1,399,693,1194,368,2631,1,1,0,1,1,1,17572,4568,1692,-577,-243,13
K,1,384,667,1149,373,2621,1,1,1,1,1,1,17560,4796,1816,-668,-120,-24
K,1,496,752,1168,357,2590,1,1,0,1,1,1,17684,4648,1768,-633,45,-142
K,1,325,720,1232,400,2624,1,1,1,1,1,1,17444,4728,1904,-677,-239,-55
K,1,432,676,1176,358,2615,1,1,1,1,1,1,17888,4936,1928,-318,-111,176
K,1,423,679,1175,390,2639,1,1,0,1,1,1,17660,4616,2120,-573,-317,83
K,1,365,496,1121,492,2337,1,1,1,1,1,1,17648,5068,2024,-229,-135,87
K,1,448,757,1079,356,2681,1,1,1,1,1,1,17744,4700,1984,-456,-306,148
K,1,357,721,1182,407,2621,1,1,1,1,1,1,17808,4676,1948,-305,-246,157
K,1,427,667,1190,389,2653,1,1,1,1,1,1,17648,4608,1952,-635,-252,120
K,1,382,678,1182,375,2622,1,1,0,1,1,1,17600,4712,1988,-427,-525,3
K,1,406,665,1189,411,2610,1,1,1,1,1,1,17672,4844,1916,-659,-280,-57
K,1,469,594,1204,432,2617,1,1,0,1,1,1,17620,4848,2000,-480,-188,-43
K,1,384,661,1169,289,2608,1,1,1,1,1,1,17708,4980,1880,-646,-142,46
K,1,398,647,1184,385,2626,1,1,1,1,1,1,17732,4960,2048,-365,-143,253
K,1,407,627,1164,381,2638,1,1,0,1,1,1,17792,4844,2096,-398,-322,312
K,1,0,667,1165,353,2623,1,1,1,1,1,1,17792,4616,1800,-242,-194,113
K,1,369,561,1259,470,2639,1,1,0,1,1,1,17792,4760,1804,-710,-223,116
K,1,448,716,1248,357,2587,1,1,1,1,1,1,17640,4524,1928,-253,-5,128
K,1,399,677,1216,386,2619,1,1,1,1,1,1,17688,4700,1896,-540,-293,39
K,1,390,693,1172,377,2642,1,1,0,1,1,1,17404,4972,2016,-343,-183,189
K,1,75,656,1057,384,2631,1,1,1,1,1,1,17500,5008,1768,-773,-469,151
K,1,570,439,1140,432,2598,1,1,0,1,1,1,17752,4372,1996,154,-190,417
K,1,336,719,1177,489,2672,1,1,1,1,1,1,17672,4068,1576,-661,-487,-89
K,1,419,684,1200,381,2609,1,1,1,1,1,1,17684,4484,1496,96,-163,-89
K,1,406,678,1168,384,2615,1,1,0,1,1,1,17604,5032,1764,-593,-354,-250
K,1,639,745,1187,366,2621,1,1,1,1,1,1,17524,5524,1512,-575,-208,-64
K,1,319,816,1278,240,2545,1,1,1,1,1,1,17612,5056,1536,-907,-450,230
K,1,417,657,1207,381,2618,1,1,1,1,1,1,17884,4700,1612,-575,-66,356
K,1,395,710,1193,385,2614,1,1,1,1,1,1,17680,4288,1620,-916,-63,46
K,1,393,679,1155,395,2966,1,1,0,1,1,1,17580,4724,2180,-360,73,-33
K,1,385,658,1176,366,2622,1,1,1,1,1,1,17376,4876,1888,-579,-300,107
K,1,446,569,1175,480,2597,1,1,0,1,1,1,17340,5068,2048,-503,-491,222
K,1,441,690,1121,359,2646,1,1,1,1,1,1,17688,4736,1840,-431,-398,332
K,1,423,704,1202,401,2615,1,1,1,1,1,1,17712,4420,1700,-413,-387,221
K,1,407,624,1091,485,2638,1,1,0,1,1,1,17664,4692,1600,-518,-6,-144
K,1,439,643,1193,383,2640,1,1,1,1,1,1,17640,4940,1756,-193,-99,-24
K,1,421,780,1154,333,2645,1,1,1,1,1,1,17516,5268,1872,-797,-303,34
K,1,400,698,1222,382,2608,1,1,0,1,1,1,17376,4924,1148,-391,-168,351
K,1,370,671,1190,389,2624,1,1,1,1,1,1,17804,4584,1644,-525,-436,381
K,1,389,763,1215,367,2617,1,1,1,1,1,1,17764,4360,1460,-385,-416,-2
K,1,351,666,1150,378,2626,1,1,1,1,1,1,17836,4844,1632,-556,-180,-62
K,1,578,688,1088,349,2721,1,1,1,1,1,1,17744,4752,1752,-458,3,-64
K,1,367,741,1213,368,2613,1,1,0,1,1,1,17476,5184,1832,-871,-255,67
K,1,405,668,1179,387,2614,1,1,1,1,1,1,17540,4888,1736,-634,-61,255
K,1,453,654,1195,314,2618,1,1,0,1,1,1,17624,4420,1784,-748,-336,165
K,1,320,658,1178,406,2628,1,1,1,1,1,1,17672,4444,1632,-466,-71,-84
K,1,256,647,1286,402,2559,1,1,0,1,1,1,17612,4984,1944,-509,-283,-63
K,1,451,668,1170,343,2637,1,1,0,1,1,1,17736,4964,1836,-229,-127,66
K,1,430,671,1146,359,2640,1,1,1,1,1,1,17684,5108,1824,-700,-257,77
K,1,352,716,1172,381,2686,1,1,0,1,1,1,17620,4768,1612,-474,-100,76
K,1,368,657,1101,371,2646,1,1,1,1,1,1,17768,4696,1640,-227,23,156
K,1,394,816,1167,309,2611,1,1,0,1,1,1,17552,4816,1980,-478,-407,186
K,1,405,649,1324,338,2582,1,1,0,1,1,1,17724,4804,1904,-232,-409,122
K,1,400,688,1179,356,2624,1,1,1,1,1,1,17544,4648,1896,-596,-551,-134
K,1,403,693,1242,345,2623,1,1,0,1,1,1,17788,4884,1480,53,-195,27
K,1,330,631,1127,386,2602,1,1,1,1,1,1,17496,5144,1444,-909,-384,49
K,1,477,744,1078,320,2661,1,1,1,1,1,1,17468,5080,1868,-521,146,251
K,1,436,928,1141,344,2625,1,1,0,1,1,1,17460,4648,1812,-779,-57,227
K,1,420,663,1175,374,2623,1,1,1,1,1,1,17732,4596,1908,-446,-129,175
K,1,299,693,1170,343,2599,1,1,0,1,1,1,17616,4684,1876,-371,-85,134
K,1,511,562,1174,400,2672,1,1,1,1,1,1,17684,4808,2016,-469,-374,46
K,1,448,782,1127,311,2676,1,1,1,1,1,1,17684,5216,1792,-273,-168,127
K,1,354,640,1213,380,2615,1,1,0,1,1,1,17624,4676,1720,-621,-487,-33
K,1,382,675,1206,343,2627,1,1,1,1,1,1,17584,4784,1640,-206,-274,99
K,1,331,653,1192,367,2608,1,1,0,1,1,1,17372,4744,1720,-571,-582,98
K,1,474,526,1200,410,2610,1,1,1,1,1,1,17648,5092,1852,-175,-259,177
K,1,540,705,1074,304,2649,1,1,1,1,1,1,17360,4888,1696,-570,-526,227
K,1,417,675,1194,348,2606,1,1,0,1,1,1,17644,4896,1540,-517,-299,127
K,1,416,669,1205,362,2623,1,1,1,1,1,1,17504,4856,1332,-1078,-276,97
K,1,351,659,1179,336,2614,1,1,0,1,1,1,17848,4768,1728,-424,-65,292
K,1,309,779,1129,361,2531,1,1,1,1,1,1,17808,4892,1768,-779,-277,167
K,1,493,606,1137,394,2607,1,1,0,1,1,1,17728,4708,1556,-383,-189,35
K,1,405,689,1165,323,2639,1,1,0,1,1,1,17708,5020,1736,-580,-176,40
K,1,391,678,1200,369,2617,1,1,1,1,1,1,17836,4820,1596,-522,-322,73
K,1,533,758,1041,323,2622,1,1,0,1,1,1,17504,4976,1216,-914,81,34
K,1,359,586,1295,369,2547,1,1,1,1,1,1,17696,4412,1812,-219,-170,153
K,1,429,700,1135,358,2625,1,1,1,1,1,1,17596,4672,1724,-655,-297,-18
K,1,428,692,1185,363,2619,1,1,1,1,1,1,17392,4980,1772,-373,-274,13
K,1,374,679,1191,370,2629,1,1,1,1,1,1,17568,5092,1748,-401,-273,162
K,1,355,683,1200,429,2623,1,1,0,1,1,1,17556,4712,1640,-406,-501,82
K,1,272,700,1250,365,2593,1,1,1,1,1,1,17720,4804,1476,-117,-562,250
K,1,450,656,1186,360,2598,1,1,1,1,1,1,17616,4904,2060,-398,-298,5
K,1,401,678,1164,367,2637,1,1,0,1,1,1,17676,5016,1564,-521,-241,18
K,1,432,698,1177,349,2614,1,1,1,1,1,1,17628,5016,1768,-364,-191,145
K,1,509,688,1142,338,2709,1,1,0,1,1,1,17704,4496,1816,163,-335,203
K,1,352,726,1149,336,2615,1,1,1,1,1,1,17672,4668,1512,-231,-532,-134
K,1,541,560,1114,353,2611,1,1,1,1,1,1,17768,5492,1384,-417,-232,51
K,1,396,657,1143,347,2643,1,1,0,1,1,1,17636,4948,1412,-582,-292,243
K,1,437,674,1129,359,2623,1,1,1,1,1,1,17724,4804,1376,-627,-176,235
K,1,551,778,972,275,2621,1,1,0,1,1,1,17772,4620,1620,-559,14,123
K,1,311,701,1238,365,2614,1,1,1,1,1,1,17604,4956,1664,-659,-120,-33
K,1,368,704,1182,253,2590,1,1,1,1,1,1,17584,4752,1684,-424,-232,23
K,1,394,693,1174,349,2599,1,1,0,1,1,1,17644,4888,1788,-224,-409,98
K,1,396,693,1162,383,2640,1,1,1,1,1,1,17788,5208,1120,-583,-363,97
K,1,528,505,947,299,2640,1,1,0,1,1,1,17780,4956,1400,-456,-195,157
K,1,221,667,1361,423,2489,1,1,1,1,1,1,17740,4820,1668,-597,-118,163
K,1,447,677,1237,379,2613,1,1,1,1,1,1,17680,4688,1492,-655,-296,87
K,1,394,663,1133,359,2630,1,1,0,1,1,1,17560,4952,1560,-409,-98,86
K,1,400,673,1166,364,2627,1,1,1,1,1,1,17352,4912,1500,-727,-197,-45
K,1,406,675,1104,400,2619,1,1,0,1,1,1,17452,5124,1700,-446,-222,208
K,1,368,749,1185,354,2603,1,1,1,1,1,1,17292,4680,1540,-670,-358,163
K,1,461,660,1172,384,2886,1,1,1,1,1,1,17608,4924,1516,-552,-169,202
K,1,389,667,1137,371,2640,1,1,0,1,1,1,17600,4668,1592,-529,-154,119
K,1,432,671,1138,386,2735,1,1,1,1,1,1,17660,5032,1884,-429,-233,137
K,1,407,657,1169,400,2633,1,1,0,1,1,1,17620,4812,1720,-605,-432,-15
K,1,382,816,1079,342,2627,1,1,1,1,1,1,17740,5088,1664,-263,-344,228
K,1,375,679,1165,409,2640,1,1,1,1,1,1,17684,4748,1512,-771,-343,32
K,1,385,677,1170,425,2591,1,1,0,1,1,1,17824,4556,1660,-45,-58,195
K,1,548,627,1164,439,2592,1,1,1,1,1,1,17432,4724,1564,-845,-185,-141
K,1,470,659,1143,468,2625,1,1,0,1,1,1,17864,5044,1848,-168,-52,-82
K,1,576,686,987,385,2730,1,1,1,1,1,1,17496,4976,1500,-642,-148,-28
K,1,400,684,1194,451,2619,1,1,1,1,1,1,17404,5076,1340,-403,-288,256
K,1,389,672,1104,436,2633,1,1,0,1,1,1,17532,5124,1488,-704,-139,225
K,1,482,667,1131,404,2626,1,1,1,1,1,1,17584,4568,1760,-462,-90,192
K,1,466,668,1163,394,2614,1,1,0,1,1,1,17632,4964,1528,-958,-265,64
K,1,341,595,1185,496,2599,1,1,1,1,1,1,17872,4896,1484,-500,20,173
K,1,409,689,1171,710,2642,1,1,1,1,1,1,17588,4860,1748,-737,-129,93
K,1,396,667,1121,425,2635,1,1,0,1,1,1,17748,4764,1756,-314,-181,24
K,1,427,697,1147,375,2688,1,1,1,1,1,1,17532,4880,1752,-490,-392,113
K,1,433,757,1184,470,2613,1,1,0,1,1,1,17612,4952,1520,-486,-325,169
K,1,304,720,1088,377,2639,1,1,1,1,1,1,17556,4896,1660,-515,-299,127
K,1,402,682,1150,432,2603,1,1,1,1,1,1,17568,5128,1340,-850,-83,106
K,1,402,649,1115,458,2637,1,1,0,1,1,1,17528,4632,1944,-162,-143,309
K,1,432,665,1200,449,2614,1,1,1,1,1,1,17588,4596,1736,-267,-300,93
K,1,432,608,1075,460,2710,1,1,0,1,1,1,17544,4920,1592,-603,-482,31
K,1,439,705,1046,389,2646,1,1,1,1,1,1,17608,4820,1512,-116,-204,129
K,1,401,651,1146,511,2609,1,1,1,1,1,1,17544,4828,1440,-825,-413,-101
K,1,350,674,1146,449,2619,1,1,0,1,1,1,17792,5416,1304,-356,-62,162
K,1,478,629,1168,478,2640,1,1,1,1,1,1,17580,4848,1608,-611,-144,90
K,1,263,611,1286,478,2532,1,1,0,1,1,1,17596,4836,1900,-394,-300,270
K,1,457,562,1148,511,2637,1,1,1,1,1,1,17584,4720,1688,-430,-238,156
K,1,411,662,1142,453,2640,1,1,1,1,1,1,17508,4960,1728,-593,-223,75
K,1,444,689,1122,464,2624,1,1,0,1,1,1,17460,4636,1480,-586,-348,95
K,1,478,678,1127,479,2752,1,1,1,1,1,1,17564,4896,1512,-353,-139,115
K,1,336,827,1007,443,2559,1,1,0,1,1,1,17656,5104,1592,-765,-277,114
K,1,455,565,1153,580,2677,1,1,1,1,1,1,17564,5128,1696,-756,-30,114
K,1,379,677,1113,450,2612,1,1,1,1,1,1,17516,4888,1800,-684,-94,183
K,1,367,662,1153,442,2638,1,1,0,1,1,1,17696,4676,1908,-515,-212,252
K,1,430,604,1020,496,2615,1,1,1,1,1,1,17716,4708,1984,-447,-343,78
K,1,491,720,1175,381,2595,1,1,1,1,1,1,17696,5076,1704,-524,-353,78
K,1,256,653,1272,528,2590,1,1,1,1,1,1,17804,5052,1568,-524,-195,55
K,1,406,667,1173,473,2630,1,1,1,1,1,1,17684,4836,1464,-597,-235,140
K,1,371,691,1168,441,2613,1,1,0,1,1,1,17848,4896,1592,-704,-144,185
K,1,467,661,1161,489,2625,1,1,1,1,1,1,17692,4456,1780,-388,-114,113
K,1,498,645,997,402,2742,1,1,1,1,1,1,17424,4816,1708,-443,-224,51
K,1,314,684,1139,538,2672,1,1,1,1,1,1,17552,5048,1732,-386,-280,141
K,1,417,658,1151,450,2634,1,1,1,1,1,1,17608,5036,1624,-526,-294,156
K,1,406,661,1161,463,2629,1,1,0,1,1,1,17772,4848,1500,-525,-196,75
K,1,424,810,1262,447,2559,1,1,1,1,1,1,17744,4824,1676,-389,-86,128
K,1,479,602,1093,466,2656,1,1,0,1,1,1,17620,5100,1516,-731,-263,91
K,1,496,688,1134,427,2625,1,1,1,1,1,1,17580,5156,1764,-404,-290,501
L,1,630,625,423,660,2677,1,1,1,1,1,1,0,0,0,0,0,0
L,1,246,751,619,535,2581,1,1,1,1,1,1,0,0,0,0,0,0
L,1,580,765,227,475,2782,1,1,1,1,1,1,0,0,0,0,0,0
L,1,304,607,496,531,2630,1,1,1,1,1,1,0,0,0,0,0,0
L,1,351,608,439,619,2647,1,0,1,1,1,1,0,0,0,0,0,0
L,1,350,705,527,599,2610,1,1,1,1,1,1,0,0,0,0,0,0
L,1,327,624,490,617,2623,1,0,1,1,1,1,0,0,0,0,0,0
L,1,400,649,560,616,2624,1,1,1,1,1,1,0,0,0,0,0,0
L,1,359,641,462,606,2636,1,0,0,1,1,1,25060,-72,-8480,3313,5749,-1537
L,1,272,615,529,619,2601,1,1,1,1,1,1,16940,4744,-3928,230,-1473,1225
L,1,325,625,511,629,2626,1,1,1,1,1,1,17400,2804,-4472,710,-984,902
L,1,343,653,496,624,2624,1,1,1,1,1,1,17008,3276,-4832,872,-1813,315
L,1,345,646,485,638,2628,1,1,1,1,1,1,17016,4040,-5248,322,-571,-367
L,1,419,639,483,640,2623,1,0,0,1,1,1,16740,4208,-5428,736,-609,252
L,1,353,675,481,608,2639,1,1,1,1,1,1,17176,3624,-5684,-133,-638,24
L,1,297,636,528,658,2627,1,0,1,1,1,1,17232,3680,-5328,-326,-265,-44
L,1,339,649,482,640,2627,1,0,1,1,1,1,16728,4372,-5328,-817,-447,464
L,1,332,661,494,641,2630,1,1,1,1,1,1,16844,3748,-5704,-744,-452,606
L,1,334,624,485,669,2628,1,0,1,1,1,1,16824,3312,-5492,-1554,92,728
L,1,807,864,144,567,2675,1,1,1,1,1,1,16896,3876,-4884,-1603,947,431
L,1,359,698,472,571,2665,1,1,1,1,1,1,17160,2980,-5508,331,-388,335
L,1,372,658,471,614,2617,1,0,1,1,1,1,17120,3716,-5384,-872,-360,120
L,1,383,662,565,640,2657,1,1,1,1,1,1,16980,4412,-5692,-438,-62,647
L,1,323,656,612,693,2624,1,0,1,1,1,1,16844,4040,-5164,-1630,244,1082
L,1,192,592,658,704,2541,1,1,1,1,1,1,16808,3540,-4364,-1450,-454,1517
L,1,423,752,491,560,2608,1,1,1,1,1,1,16924,3496,-4764,-221,-965,1949
L,1,369,619,343,617,2653,1,0,1,1,1,1,16916,2780,-5560,-1671,-186,1751
L,1,182,689,484,657,2627,1,1,1,1,1,1,17352,2216,-5540,-60,-1393,1604
L,1,451,797,624,423,2615,1,0,1,1,1,1,17508,1728,-6240,-652,-712,810
L,1,80,573,708,669,2497,1,1,1,1,1,1,17392,1420,-6600,-253,-417,-153
L,1,331,585,469,631,2613,1,1,1,1,1,1,17340,1404,-6792,-421,1052,-1359
L,1,347,620,411,611,2617,1,0,1,1,1,1,17336,2804,-5636,-403,1550,-2096
L,1,358,668,455,688,2483,1,1,1,1,1,1,17264,5876,-2692,-1822,483,-1175
L,1,442,726,364,656,2589,1,0,1,1,1,1,16424,6684,-2668,-1978,-1872,2136
L,1,303,910,400,496,2661,1,1,1,1,1,1,17304,1060,-7212,1003,-1766,1894
L,1,414,623,405,643,2642,1,1,1,1,1,1,16544,-1960,-8628,309,2615,-2291
L,1,388,666,487,611,2634,1,0,1,1,1,1,18192,3292,-3908,-1344,1392,-2024
L,1,384,558,484,848,2645,1,1,1,1,1,1,16356,6496,-2436,493,399,-592
L,1,223,720,389,720,2643,1,0,1,1,1,1,16444,5688,-4772,-555,-1473,978
L,1,253,462,598,782,2558,1,1,1,1,1,1,17492,2164,-6048,-353,-948,839
L,1,353,741,449,607,2627,1,1,1,1,1,1,17764,844,-6244,275,571,-359
L,1,309,613,373,654,2639,1,0,1,1,1,1,17244,5164,-3856,-1954,876,-147
L,1,302,729,469,639,2629,1,1,1,1,1,1,16488,5160,-3056,404,-863,1186
L,1,334,627,566,576,2688,1,0,1,1,1,1,17120,2588,-5508,-706,-843,1143
L,1,47,621,708,662,2614,1,1,1,1,1,1,17548,2040,-5916,-726,650,466
L,1,400,629,511,608,2559,1,1,1,1,1,1,17372,3196,-5048,-749,689,793
L,1,321,642,499,685,2619,1,0,1,1,1,1,16812,3200,-4684,-305,-1,1764
L,1,378,582,572,652,2631,1,1,1,1,1,1,16828,4024,-3296,-710,-415,505
L,1,317,672,379,710,2768,1,0,1,1,1,1,17840,2860,-3640,200,-1447,1811
L,1,71,624,694,656,2527,1,1,1,1,1,1,17588,184,-7152,-541,-233,2688
L,1,394,593,411,685,2657,1,1,1,1,1,1,17616,1176,-5952,-228,776,-123
L,1,349,684,537,591,2619,1,0,1,1,1,1,17408,1844,-5596,2720,488,-110
L,1,358,592,142,656,2613,1,1,1,1,1,1,17468,2832,-3864,-1907,-384,191
L,1,367,832,176,654,2559,1,0,1,1,1,1,17336,1724,-4784,-151,531,-427
L,1,184,726,652,609,2557,1,1,1,1,1,1,17580,2020,-5376,-503,-72,-213
L,1,333,656,525,688,2625,1,1,1,1,1,1,17444,3448,-4156,51,110,369
L,1,294,653,510,642,2606,1,0,1,1,1,1,17412,2364,-4292,194,-744,1071
L,1,390,669,443,667,2626,1,1,1,1,1,1,17596,536,-5676,200,-320,242
L,1,599,831,52,545,2766,1,1,1,1,1,1,17068,-312,-6140,-56,-477,-1074
L,1,33,592,735,706,2551,1,1,1,1,1,1,17756,2252,-4860,-781,1570,-3316
L,1,395,636,437,618,2618,1,1,1,1,1,1,17440,3816,-4896,-1188,888,-2211
L,1,342,647,497,654,2624,1,0,1,1,1,1,17464,3216,-3796,-344,1471,-2213
L,1,363,668,507,640,2559,1,1,1,1,1,1,17084,5424,-3588,-388,1188,-1355
L,1,505,731,374,614,2691,1,0,1,1,1,1,17088,4736,-3720,770,99,235
L,1,367,695,596,640,2545,1,1,1,1,1,1,17584,3208,-3616,-45,-232,967
L,1,432,666,444,615,2630,1,1,1,1,1,1,17316,2620,-4660,-995,-85,208
L,1,336,610,528,624,2555,1,0,1,1,1,1,17688,2244,-4724,-140,-266,117
L,1,330,656,407,666,2475,1,1,1,1,1,1,17680,2336,-3996,-537,66,-381
L,1,464,640,405,682,2656,1,0,1,1,1,1,17456,3272,-4352,-362,-12,-726
L,1,359,612,383,890,2606,1,1,1,1,1,1,17440,4236,-4548,-961,-43,-334
L,1,339,630,471,675,2620,1,1,1,1,1,1,17388,4104,-3896,-300,356,397
L,1,310,656,511,634,2624,1,0,1,1,1,1,17512,3592,-3740,-651,-219,577
L,1,306,564,627,655,2622,1,1,1,1,1,1,17640,2740,-3684,-577,-250,504
L,1,715,878,199,579,2674,1,0,1,1,1,1,17564,2760,-4156,-344,-464,118
L,1,338,625,575,101,2559,1,1,1,1,1,1,17496,3012,-4180,-123,-257,229
L,1,335,677,449,650,2656,1,1,1,1,1,1,17348,3208,-4216,68,-269,229
L,1,279,617,506,645,2626,1,0,1,1,1,1,17720,2900,-3680,32,-536,157
L,1,448,567,464,720,2648,1,1,1,1,1,1,17388,2896,-3732,-8,-853,349
L,1,485,772,354,500,2671,1,0,1,1,1,1,17384,2848,-3796,467,-984,369
L,1,391,623,598,710,2792,1,1,1,1,1,1,17340,2896,-4060,-2262,-1904,137
L,1,349,590,465,666,2683,1,1,1,1,1,1,17508,3460,-5668,-880,-1863,77
L,1,257,606,537,646,2605,1,0,1,1,1,1,17416,3148,-5888,-749,-363,464
L,1,334,666,523,644,2610,1,1,1,1,1,1,17412,3216,-5148,-451,197,404
L,1,336,863,423,495,2655,1,0,1,1,1,1,17492,3120,-4868,-492,475,298
L,1,258,595,505,742,2631,1,1,1,1,1,1,17380,3056,-4200,-552,303,255
L,1,363,650,458,653,2674,1,1,1,1,1,1,17456,3020,-3932,-517,-52,378
L,1,338,612,500,609,2615,1,0,1,1,1,1,17368,2784,-4204,-380,247,499
L,1,439,511,346,817,2681,1,1,1,1,1,1,17360,2344,-4588,-237,-41,384
L,1,478,670,342,596,2702,1,0,1,1,1,1,17480,2444,-4376,-239,-60,89
L,1,368,619,464,604,2640,1,1,1,1,1,1,17428,2868,-4320,-82,-422,185
L,1,387,678,506,618,2640,1,1,1,1,1,1,17668,2712,-4156,-195,-321,36
L,1,353,642,531,618,2619,1,0,1,1,1,1,17588,2896,-4464,-425,-289,101
L,1,413,579,409,715,2644,1,1,1,1,1,1,17436,2932,-4480,28,-111,-45
L,1,385,817,400,431,2608,1,1,1,1,1,1,17196,2680,-4616,136,415,-324
L,1,336,645,504,596,2607,1,0,1,1,1,1,17336,2928,-4676,-1316,-773,351
L,1,319,624,496,640,2619,1,1,1,1,1,1,17736,2948,-4396,22,-285,395
L,1,296,627,523,627,2640,1,0,1,1,1,1,17616,2232,-4784,-370,-320,415
L,1,422,660,479,637,2559,1,1,1,1,1,1,17424,2384,-4444,-276,-384,90
L,1,213,725,548,520,2622,1,0,1,1,1,1,17396,2596,-4592,217,-228,-55
L,1,304,315,507,676,2640,1,0,1,1,1,1,17452,3136,-4564,78,-206,-322
L,1,352,656,560,628,2611,1,1,1,1,1,1,17212,2472,-4508,573,-596,615
L,1,504,587,579,638,2611,1,0,1,1,1,1,17540,2740,-4948,-1089,-360,96
L,1,211,640,511,586,2547,1,1,1,1,1,1,17680,2668,-4652,-632,-62,50
L,1,304,816,509,450,2545,1,1,1,1,1,1,17548,2624,-4816,-1005,-110,5
L,1,311,670,522,597,2627,1,0,1,1,1,1,17468,2768,-4444,-247,-453,107
L,1,263,603,581,639,2597,1,1,1,1,1,1,17652,2544,-4704,163,-500,221
L,1,304,1095,489,592,2609,1,0,1,1,1,1,17312,2332,-4704,-621,-504,-7
L,1,560,576,625,503,2624,1,1,1,1,1,1,17548,2552,-4824,-740,-420,7
L,1,466,593,351,570,2730,1,1,1,1,1,1,17488,2856,-4920,-884,-13,106
L,1,382,691,542,586,2595,1,1,1,1,1,1,17228,2636,-4656,-634,-221,-35
L,1,271,666,510,654,2606,1,1,1,1,1,1,17472,2900,-4508,-765,-344,35
L,1,365,623,534,563,2636,1,0,1,1,1,1,17264,2740,-5016,-908,-48,-43
L,1,320,555,291,640,2703,1,1,1,1,1,1,17464,2704,-5016,-1075,-316,142
L,1,247,869,739,364,2533,1,1,1,1,1,1,17564,2816,-4612,-867,-247,281
L,1,369,628,485,586,2632,1,1,1,1,1,1,17396,2500,-4732,-545,190,132
L,1,340,604,471,640,2608,1,1,1,1,1,1,17548,2620,-4336,-1006,-109,-46
L,1,344,623,476,610,2641,1,0,1,1,1,1,17608,2572,-4688,-222,-129,7
L,1,169,621,644,646,2630,1,1,1,1,1,1,16848,2580,-4460,-852,-465,76
L,1,410,557,549,811,2611,1,0,1,1,1,1,17608,2892,-4892,-580,-114,-124
L,1,311,589,495,574,2986,1,0,1,1,1,1,17328,2764,-4908,-1018,737,-65
L,1,339,615,494,661,2625,1,1,1,1,1,1,17348,2964,-4296,-740,-451,325
L,1,291,661,431,528,2711,1,0,1,1,1,1,17988,2680,-4520,-1237,299,-130
L,1,455,595,545,556,2658,1,1,1,1,1,1,16992,2856,-4316,-1383,-179,206
L,1,438,530,464,704,2630,1,0,1,1,1,1,17796,3108,-4072,-607,-7,29
L,1,307,622,479,766,2669,1,0,1,1,1,1,17512,2652,-4748,-947,18,235
L,1,384,587,434,656,2637,1,1,1,1,1,1,17600,2860,-4300,-496,-469,268
L,1,351,694,503,455,2613,1,0,1,1,1,1,17848,2848,-4500,-591,-125,122
L,1,231,627,511,638,2592,1,1,1,1,1,1,17488,2748,-4456,-505,-7,44
L,1,592,791,143,530,2781,1,0,1,1,1,1,17540,2764,-4240,-517,-266,-59
L,1,275,663,492,642,2640,1,0,1,1,1,1,17540,3104,-4564,-709,-7,70
L,1,349,687,554,625,2627,1,1,1,1,1,1,17284,2756,-4320,-331,-93,44
L,1,293,665,471,579,2439,1,0,1,1,1,1,17604,2960,-4192,-532,-522,334
L,1,27,766,648,736,2448,1,1,1,1,1,1,17296,2936,-4464,-296,-357,337
L,1,609,704,271,497,2752,1,1,1,1,1,1,17476,2948,-4424,-876,-348,361
L,1,365,591,429,611,2630,1,0,1,1,1,1,17656,2500,-4524,-306,-77,169
L,1,359,651,464,623,2636,1,1,1,1,1,1,17412,2736,-4768,-867,-57,-120
L,1,371,640,459,467,2630,1,0,1,1,1,1,17744,2988,-4200,-558,-10,-156
L,1,0,694,475,786,2447,1,1,1,1,1,1,17576,3144,-4296,-1144,55,41
L,1,446,582,465,650,2654,1,0,1,1,1,1,17332,2924,-4112,-178,-483,506
L,1,279,646,511,624,2622,1,0,1,1,1,1,17316,2728,-4340,-787,-264,-14
L,1,352,625,542,655,2624,1,1,1,1,1,1,17456,3052,-4020,-67,-241,13
L,1,12,655,448,511,2611,1,0,1,1,1,1,17412,2696,-4452,-445,-678,288
L,1,112,470,903,523,2507,1,1,1,1,1,1,17608,2540,-4696,52,-432,232
L,1,594,533,271,625,2646,1,1,1,1,1,1,17140,2548,-5040,-565,-949,172
L,1,384,692,561,586,2601,1,0,1,1,1,1,17648,3156,-4316,-657,-252,-68
L,1,375,708,481,598,2595,1,1,1,1,1,1,17116,2724,-4296,-603,112,-148
L,1,469,656,362,511,2608,1,0,1,1,1,1,17376,3264,-4028,-536,-377,250
L,1,94,609,769,605,2497,1,1,1,1,1,1,17468,2724,-4736,130,-687,524
L,1,348,535,493,627,2640,1,0,1,1,1,1,17396,2712,-5480,-484,-562,199
L,1,333,653,466,614,2634,1,0,1,1,1,1,17360,2788,-5284,-396,-45,52
L,1,413,637,485,618,2625,1,1,1,1,1,1,17408,2592,-4452,-349,269,-75
L,1,360,637,470,578,2674,1,0,1,1,1,1,17412,2844,-4140,-652,137,47
L,1,0,523,834,769,2407,1,1,1,1,1,1,17252,3052,-3676,-222,-48,71
L,1,592,764,351,496,2769,1,1,1,1,1,1,17512,2840,-4144,52,-402,364
L,1,371,641,478,592,2642,1,0,1,1,1,1,17412,2524,-4716,-452,-277,135
L,1,365,615,533,622,2615,1,1,1,1,1,1,17500,2576,-5088,-672,-383,116
L,1,617,575,457,588,2634,1,0,1,1,1,1,17564,2992,-4508,-493,202,-15
L,1,0,432,826,754,2551,1,1,1,1,1,1,17560,2884,-4260,-589,-66,91
L,1,415,632,444,644,2559,1,1,1,1,1,1,17520,3068,-4236,-574,-4,61
L,1,287,621,453,630,2631,1,0,1,1,1,1,17348,3232,-4208,-487,-279,332
L,1,320,594,449,661,2642,1,1,1,1,1,1,17616,2604,-4684,-544,-311,508
L,1,380,725,426,598,2591,1,0,1,1,1,1,17388,2380,-4784,-684,-149,316
L,1,226,699,598,579,2594,1,1,1,1,1,1,17780,2352,-4304,-114,-215,112
L,1,400,735,412,526,2657,1,1,1,1,1,1,17272,2520,-4588,-780,-329,31
L,1,351,642,511,587,2638,1,0,1,1,1,1,17512,2784,-4568,-391,-142,-71
L,1,399,602,444,606,2641,1,1,1,1,1,1,17464,3100,-4520,-889,213,-54
L,1,467,711,368,444,2743,1,0,1,1,1,1,17436,3392,-4276,-792,-70,468
L,1,55,704,694,560,2544,1,1,1,1,1,1,17672,2884,-4140,-629,-57,603
L,1,320,667,475,621,2638,1,1,1,1,1,1,17648,2188,-4300,-576,-181,166
L,1,257,659,495,624,2611,1,0,1,1,1,1,17512,2212,-4248,-220,-335,82
L,1,329,613,545,571,2629,1,1,1,1,1,1,17536,2484,-4284,84,-442,15
L,1,467,752,426,614,2623,1,0,1,1,1,1,17524,2728,-4732,-634,-463,-145
L,1,168,747,549,555,2601,1,1,1,1,1,1,17428,2976,-4752,-732,-187,-71
L,1,369,658,507,587,2630,1,1,1,1,1,1,17244,3060,-4660,-807,138,222
L,1,346,590,535,580,2631,1,0,1,1,1,1,17408,2456,-4196,-356,-182,388
L,1,432,617,470,581,2608,1,1,1,1,1,1,17480,2360,-4140,-800,-257,36
L,1,281,632,624,302,2559,1,0,1,1,1,1,17532,2784,-4332,-675,-121,96
L,1,384,428,507,785,2625,1,1,1,1,1,1,17512,2844,-4128,-540,-67,37
L,1,419,635,528,567,2654,1,1,1,1,1,1,17620,2912,-4232,-767,-346,-96
L,1,356,674,539,606,2593,1,0,1,1,1,1,17520,2856,-4404,-890,-294,-46
L,1,310,613,577,697,2480,1,1,1,1,1,1,17560,2912,-4372,-721,-272,206
L,1,336,719,509,495,2559,1,0,1,1,1,1,17544,2900,-4448,-668,-130,253
L,1,254,699,634,454,2512,1,1,1,1,1,1,17396,2484,-4496,-498,-2,190
L,1,363,683,463,586,2622,1,1,1,1,1,1,17632,2592,-4244,-688,-181,99
L,1,317,643,485,581,2655,1,0,1,1,1,1,17596,2616,-4448,-482,-43,16
L,1,387,727,496,625,2675,1,1,1,1,1,1,17320,2724,-4328,-418,-49,-47
L,1,344,672,453,567,2601,1,0,1,1,1,1,17572,2796,-4244,-584,-47,68
L,1,694,846,144,439,2786,1,1,1,1,1,1,17564,2848,-4092,-238,-114,-62
L,1,259,609,544,643,2608,1,1,1,1,1,1,17652,2812,-4172,-676,-260,48
L,1,345,603,481,551,2609,1,0,1,1,1,1,17540,2968,-4268,-353,30,87
L,1,354,673,498,625,2635,1,1,1,1,1,1,17752,2696,-4156,-660,1,190
L,1,444,525,314,674,2605,1,0,1,1,1,1,17576,2680,-4108,-524,-62,60
L,1,230,880,591,368,2549,1,1,1,1,1,1,17584,2704,-4152,-685,-276,266
L,1,315,640,479,624,2864,1,1,1,1,1,1,17380,2804,-4164,12,-8,39
L,1,369,678,494,551,2619,1,0,1,1,1,1,17336,2916,-4236,-356,-556,-32
L,1,431,491,607,574,2613,1,1,1,1,1,1,17436,2996,-4224,-213,-435,92
L,1,253,528,487,598,2669,1,0,1,1,1,1,17316,2540,-4468,-581,-167,146
L,1,744,718,125,586,2701,1,1,1,1,1,1,17660,2616,-4260,-411,-177,68
L,1,446,637,480,557,2621,1,1,1,1,1,1,17684,2768,-4120,-441,-169,-25
L,1,374,606,489,613,2640,1,0,1,1,1,1,17608,2928,-4224,-428,-162,11
M,1,368,1,486,249,2621,0,1,1,1,1,0,13312,0,0,0,0,0
M,1,301,0,475,302,2584,0,0,1,1,1,0,13312,0,0,0,0,0
M,1,427,70,377,400,2607,0,0,1,1,1,0,13312,0,0,0,0,0
M,1,242,0,576,310,2583,0,0,1,1,1,0,13312,0,0,0,0,0
M,1,352,0,511,208,2641,0,0,1,1,1,0,13312,0,0,0,0,0
M,1,270,266,651,26,2499,0,0,1,1,1,0,13312,0,0,0,0,0
M,1,651,231,194,54,2763,0,0,1,1,1,0,13312,0,0,0,0,0
M,1,486,0,604,70,2659,0,0,1,1,1,0,13312,0,0,0,0,0
M,1,320,0,471,274,2677,0,0,1,1,1,0,13312,0,0,0,0,0
M,1,368,32,499,272,2584,0,0,1,1,1,0,13312,0,0,0,0,0
M,1,315,25,489,272,2605,0,0,1,1,1,0,13312,0,0,0,0,0
M,1,298,57,528,239,2601,0,0,1,1,1,0,13312,0,0,0,0,0
M,1,447,0,526,285,2559,0,0,1,1,1,0,13312,0,0,0,0,0
M,1,384,75,536,247,2586,0,0,1,1,1,0,13312,0,0,0,0,0
M,1,365,265,342,221,2582,0,0,1,1,1,0,13312,0,0,0,0,0
M,1,455,0,401,231,2621,0,0,1,1,1,0,13312,0,0,0,0,0
M,1,389,0,469,415,2615,0,0,1,1,1,0,13312,0,0,0,0,0
M,1,423,0,543,511,2609,0,0,1,1,1,0,13312,0,0,0,0,0
M,1,315,0,528,299,2551,0,0,1,1,1,0,13312,0,0,0,0,0
M,1,398,0,419,271,2595,0,0,1,1,1,0,13312,0,0,0,0,0
M,1,310,8,500,304,2601,0,0,1,1,1,0,13312,0,0,0,0,0
M,1,346,0,470,272,2611,0,0,1,1,1,0,13312,0,0,0,0,0
M,1,364,32,581,284,2602,0,1,1,1,1,0,13312,0,0,0,0,0
M,1,337,71,441,251,2385,0,0,1,1,1,0,13312,0,0,0,0,0
M,1,359,0,447,321,2614,0,0,1,1,1,0,13312,0,0,0,0,0
M,1,318,0,586,446,2555,0,0,1,1,1,0,13312,0,0,0,0,0
M,1,45,0,786,406,2467,0,0,1,1,1,0,13312,0,0,0,0,0
M,1,373,0,455,256,2521,0,0,1,1,1,0,13312,0,0,0,0,0
M,1,395,0,485,241,2592,0,0,1,1,1,0,13312,0,0,0,0,0
M,1,350,0,546,250,2598,0,0,1,1,1,0,13312,0,0,0,0,0
M,1,335,0,495,259,2624,0,0,1,1,1,0,13312,0,0,0,0,0
M,1,364,0,474,235,2603,0,0,1,1,1,0,13312,0,0,0,0,0
M,1,350,50,455,192,2559,0,0,1,1,1,0,13312,0,0,0,0,0
M,1,425,43,496,0,2603,0,0,1,1,1,0,13312,0,0,0,0,0
M,1,556,0,213,322,2660,0,0,1,1,1,0,13312,0,0,0,0,0
M,1,272,0,592,340,2530,0,0,1,1,1,0,13312,0,0,0,0,0
M,1,164,675,585,336,2502,0,0,1,1,1,0,13312,0,0,0,0,0
M,1,429,660,471,337,2604,0,0,1,1,1,0,13312,0,0,0,0,0
M,1,408,762,496,159,2607,0,1,1,1,1,0,13312,0,0,0,0,0
M,1,333,679,453,285,2626,0,0,1,1,1,0,13312,0,0,0,0,0
M,1,381,710,442,247,2629,0,0,1,1,1,0,13312,0,0,0,0,0
M,1,313,646,489,244,2591,0,0,1,1,1,0,13312,0,0,0,0,0
M,1,406,611,592,238,2589,0,0,1,1,1,0,13312,0,0,0,0,0
M,1,1158,640,541,177,2639,0,0,1,1,1,0,13312,0,0,0,0,0
M,1,145,594,711,321,2615,0,0,1,1,1,0,13312,0,0,0,0,0
M,1,253,884,693,69,2486,0,0,1,1,1,0,13312,0,0,0,0,0
M,1,563,533,369,303,2639,0,0,1,1,1,0,13312,0,0,0,0,0
M,1,292,578,851,438,2316,0,0,1,1,1,0,13312,0,0,0,0,0
M,1,326,889,449,285,2559,0,0,1,1,1,0,13312,0,0,0,0,0
M,1,303,683,487,238,2608,0,0,1,1,1,0,17368,3440,-3284,-1579,-875,175
M,1,311,688,469,240,2595,0,0,1,1,1,0,17392,5396,-1944,3095,-550,191
M,1,437,608,544,307,2559,0,0,1,1,1,0,17452,4108,-3024,1792,-1018,190
M,1,760,656,254,47,2778,0,0,1,1,1,0,17808,4552,-3520,-443,-1658,105
M,1,273,784,495,215,2582,0,0,1,1,1,0,17808,4552,-3520,-443,-1658,105
M,1,363,697,491,219,2617,0,0,1,1,1,0,17808,4552,-3520,-443,-1658,105
M,1,310,647,511,282,2559,0,0,1,1,1,0,17884,3312,-5104,-577,-1303,691
M,1,426,699,496,211,2599,0,0,1,1,1,0,17884,3312,-5104,-577,-1303,691
M,1,268,635,570,348,2458,0,0,1,1,1,0,17884,3312,-5104,-577,-1303,691
M,1,656,720,323,251,2623,0,0,1,1,1,0,17884,3312,-5104,-577,-1303,691
M,1,444,624,451,349,2599,0,0,1,1,1,0,17884,3312,-5104,-577,-1303,691
M,1,425,793,448,298,2559,0,0,1,1,1,0,17884,3312,-5104,-577,-1303,691
M,1,357,661,482,263,2590,0,0,1,1,1,0,17884,3312,-5104,-577,-1303,691
M,1,343,701,482,247,2610,0,0,1,1,1,0,17884,3312,-5104,-577,-1303,691
M,1,385,662,450,285,2596,0,0,1,1,1,0,17884,3312,-5104,-577,-1303,691
M,1,350,627,496,290,2627,0,0,0,1,1,0,17884,3312,-5104,-577,-1303,691
M,1,351,592,470,334,2608,0,0,1,1,1,0,17884,3312,-5104,-577,-1303,691
M,1,282,669,490,244,2592,0,0,1,1,1,0,17884,3312,-5104,-577,-1303,691
M,1,295,705,588,124,2559,0,0,1,1,1,0,17884,3312,-5104,-577,-1303,691
M,1,261,753,620,176,2533,0,0,1,1,1,0,17884,3312,-5104,-577,-1303,691
M,1,224,912,654,67,2480,0,0,1,1,1,0,17884,3312,-5104,-577,-1303,691
M,1,439,809,427,274,2625,0,0,1,1,1,0,17884,3312,-5104,-577,-1303,691
M,1,307,646,533,299,2606,0,0,1,1,1,0,17884,3312,-5104,-577,-1303,691
M,1,389,693,466,242,2609,0,0,1,1,1,0,17884,3312,-5104,-577,-1303,691
M,1,345,656,508,209,2594,0,0,1,1,1,0,17884,3312,-5104,-577,-1303,691
M,1,382,724,534,259,2604,0,0,1,1,1,0,17884,3312,-5104,-577,-1303,691
M,1,330,593,547,215,2559,0,0,0,1,1,0,17884,3312,-5104,-577,-1303,691
M,1,314,671,479,201,2608,0,0,1,1,1,0,17884,3312,-5104,-577,-1303,691
M,1,635,154,296,147,2702,0,0,1,1,1,0,17884,3312,-5104,-577,-1303,691
M,1,630,661,270,229,2677,0,0,1,1,1,0,17884,3312,-5104,-577,-1303,691
M,1,441,491,540,326,2624,0,0,1,1,1,0,17884,3312,-5104,-577,-1303,691
M,1,407,665,406,326,2528,0,0,1,1,1,0,17884,3312,-5104,-577,-1303,691
M,1,417,634,505,286,2598,0,0,1,1,1,0,17884,3312,-5104,-577,-1303,691
M,1,323,671,501,270,2556,0,0,1,1,1,0,17884,3312,-5104,-577,-1303,691
M,1,368,693,511,229,2551,0,0,1,1,1,0,17884,3312,-5104,-577,-1303,691
M,1,386,740,499,197,2582,0,0,0,1,1,0,17884,3312,-5104,-577,-1303,691
M,1,471,753,408,209,2586,0,0,1,1,1,0,17884,3312,-5104,-577,-1303,691
M,1,394,617,482,250,2639,0,0,1,1,1,0,17884,3312,-5104,-577,-1303,691
M,1,347,785,361,321,2538,0,0,1,1,1,0,17884,3312,-5104,-577,-1303,691
M,1,208,637,658,290,2501,0,0,1,1,1,0,17884,3312,-5104,-577,-1303,691
M,1,334,852,538,128,2528,0,0,1,1,1,0,17884,3312,-5104,-577,-1303,691
M,1,231,634,375,240,2559,0,0,1,1,1,0,17884,3312,-5104,-577,-1303,691
M,1,496,706,448,227,2610,0,0,1,1,1,0,17884,3312,-5104,-577,-1303,691
M,1,338,662,492,319,2604,0,0,1,1,1,0,17884,3312,-5104,-577,-1303,691
M,1,368,649,495,280,2593,0,0,1,1,1,0,17884,3312,-5104,-577,-1303,691
M,1,326,691,464,309,2555,0,0,1,1,1,0,17884,3312,-5104,-577,-1303,691
M,1,333,32,569,285,2883,0,0,0,1,1,0,17884,3312,-5104,-577,-1303,691
M,1,287,0,623,480,2480,0,0,1,1,1,0,17884,3312,-5104,-577,-1303,691
M,1,307,601,549,254,2604,0,0,1,1,1,0,17884,3312,-5104,-577,-1303,691
M,1,283,848,500,139,2559,0,0,1,1,1,0,17884,3312,-5104,-577,-1303,691
M,1,355,783,500,65,2617,0,0,1,1,1,0,17884,3312,-5104,-577,-1303,691
M,1,601,661,415,307,2690,0,0,1,1,1,0,17884,3312,-5104,-577,-1303,691
M,1,365,611,410,219,2590,0,0,1,1,1,0,17884,3312,-5104,-577,-1303,691
M,1,338,676,509,253,2583,0,0,1,1,1,0,17884,3312,-5104,-577,-1303,691
M,1,377,709,455,239,2611,0,0,1,1,1,0,17884,3312,-5104,-577,-1303,691
M,1,311,638,480,312,2624,0,0,1,1,1,0,17884,3312,-5104,-577,-1303,691
M,1,724,704,447,366,3152,0,0,1,1,1,0,17884,3312,-5104,-577,-1303,691
M,1,350,577,607,382,2558,0,0,1,1,1,0,17884,3312,-5104,-577,-1303,691
M,1,298,749,478,345,2544,0,0,1,1,1,0,17884,3312,-5104,-577,-1303,691
M,1,302,773,593,212,2559,0,0,1,1,1,0,17884,3312,-5104,-577,-1303,691
M,1,355,832,576,121,2581,0,0,1,1,1,0,17884,3312,-5104,-577,-1303,691
M,1,448,700,392,265,2598,0,0,1,1,1,0,17884,3312,-5104,-577,-1303,691
M,1,784,585,466,227,2621,0,0,1,1,1,0,17884,3312,-5104,-577,-1303,691
M,1,382,693,531,247,2585,0,0,1,1,1,0,17884,3312,-5104,-577,-1303,691
M,1,387,672,413,258,2592,0,0,1,1,1,0,17884,3312,-5104,-577,-1303,691
M,1,369,688,511,293,2587,0,0,1,1,1,0,17884,3312,-5104,-577,-1303,691
M,1,335,705,457,223,2580,0,0,0,1,1,0,17884,3312,-5104,-577,-1303,691
M,1,304,560,645,400,2539,0,0,1,1,1,0,17884,3312,-5104,-577,-1303,691
M,1,284,615,418,352,2559,0,0,1,1,1,0,17884,3312,-5104,-577,-1303,691
M,1,414,208,339,164,2687,0,0,1,1,1,0,17884,3312,-5104,-577,-1303,691
M,1,493,16,432,341,2640,0,0,1,1,1,0,17884,3312,-5104,-577,-1303,691
M,1,268,0,656,320,2506,0,0,1,1,1,0,17884,3312,-5104,-577,-1303,691
M,1,366,1,493,273,2588,0,0,1,1,1,0,17884,3312,-5104,-577,-1303,691
M,1,273,66,489,270,2598,0,0,1,1,1,0,17884,3312,-5104,-577,-1303,691
M,1,268,82,546,268,2559,0,0,1,1,1,0,17884,3312,-5104,-577,-1303,691
M,1,418,0,485,242,2620,0,0,1,1,1,0,17884,3312,-5104,-577,-1303,691
M,1,420,0,480,267,2589,0,0,1,1,1,0,17376,4328,-3412,-386,-542,70
M,1,291,16,486,263,2603,0,0,1,1,1,0,17472,4148,-3664,-629,-468,43
M,1,446,71,384,96,2655,0,0,1,1,1,0,17380,4024,-3676,-653,-270,134
M,1,457,106,574,249,2599,0,0,1,1,1,0,17436,4076,-3380,-687,-288,169
M,1,357,21,435,239,2594,0,0,1,1,1,0,17316,4232,-3676,-531,-587,-28
M,1,300,44,331,277,2754,0,0,1,1,1,0,17396,4428,-3644,-480,-425,76
M,1,271,32,559,215,2603,0,0,1,1,1,0,17360,4184,-3624,-424,-486,64
M,1,408,283,360,112,2639,0,0,1,1,1,0,17436,4344,-3768,-421,-245,62
M,1,369,0,453,313,2864,0,0,1,1,1,0,17396,4200,-3700,-311,-191,-19
M,1,417,12,464,293,2618,0,0,1,1,1,0,17440,4364,-3728,-415,-357,-3
M,1,304,64,462,272,2544,0,0,1,1,1,0,17444,4352,-3784,-353,-303,28
M,1,448,0,422,339,2559,0,0,1,1,1,0,17372,4516,-3920,-574,-245,82
M,1,293,284,608,95,2491,0,0,1,1,1,0,17400,4412,-4048,-624,-129,152
M,1,455,43,485,608,2557,0,0,1,1,1,0,17332,4228,-3612,-505,-56,156
M,1,350,22,406,265,2608,0,0,1,1,1,0,17340,4164,-3712,-639,-32,211
M,1,275,16,459,176,2623,0,0,1,1,1,0,17244,4176,-3828,-429,40,125
M,1,320,198,720,207,2593,0,0,1,1,1,0,17284,4168,-3632,-390,194,56
M,1,491,0,318,262,2595,0,0,1,1,1,0,17216,4268,-3344,-453,18,-59
M,1,338,0,511,261,2583,0,0,1,1,1,0,17236,4312,-3144,-302,-276,-69
M,1,375,27,480,297,2639,0,0,1,1,1,0,17168,4472,-3652,-577,-442,105
M,1,302,0,422,288,2582,0,0,1,1,1,0,17340,4516,-3680,-602,-288,182
M,1,494,242,304,144,2799,0,0,1,1,1,0,17412,4376,-3668,-651,-368,348
M,1,353,0,565,388,2559,0,0,1,1,1,0,17476,4052,-3796,-780,-252,261
M,1,223,144,566,225,2526,0,0,1,1,1,0,17640,4056,-3584,-554,-155,184
M,1,406,54,578,275,2549,0,0,1,1,1,0,17532,4008,-3704,-497,-72,-115
M,1,304,0,496,550,2600,0,0,1,1,1,0,17620,4256,-3388,-306,-98,-113
M,1,423,95,401,593,2590,0,0,1,1,1,0,17392,4528,-3312,-512,-265,-181
M,1,23,0,725,370,2467,0,0,1,1,1,0,17356,4600,-3504,-499,-397,114
M,1,311,0,666,247,2546,0,0,1,1,1,0,17500,4276,-3608,-451,-516,182
M,1,322,0,437,271,2598,0,0,1,1,1,0,17404,4304,-3896,-642,-488,219
M,1,385,57,487,243,2588,0,0,1,1,1,0,17316,4316,-3900,-617,-446,267
M,1,397,82,336,258,2641,0,0,1,1,1,0,17352,4216,-3616,-453,-416,233
M,1,0,0,606,335,2496,0,0,1,1,1,0,17360,4136,-3760,-525,-576,293
M,1,347,480,528,0,2559,0,0,1,1,1,0,17148,4096,-4228,-699,-367,103
M,1,370,0,432,226,2601,0,0,1,1,1,0,17308,4140,-4324,-310,-194,15
M,1,343,71,511,235,2559,0,0,1,1,1,0,17328,4460,-4184,-701,119,209
M,1,351,0,415,151,2662,0,0,1,1,1,0,17372,4092,-4192,-427,466,53
M,1,27,0,769,424,2465,0,0,1,1,1,0,17340,4368,-3480,-627,438,-97
M,1,320,117,528,309,2559,0,0,1,1,1,0,17384,4272,-3072,-423,172,-35
M,1,402,42,433,245,2592,0,0,1,1,1,0,17380,4448,-2860,-453,-195,100
M,1,338,79,490,240,2592,0,0,1,1,1,0,17340,4440,-3336,-665,-671,320
M,1,326,139,481,303,2601,0,0,1,1,1,0,17408,4252,-3756,-268,-614,393
M,1,678,0,304,480,2613,0,0,1,1,1,0,17416,4176,-4232,-848,-637,302
M,1,192,47,672,275,2480,0,0,1,1,1,0,17412,4052,-3844,-394,-109,230
M,1,325,11,468,265,2589,0,0,1,1,1,0,17580,4052,-3676,-640,-85,-33
M,1,445,91,419,268,2631,0,0,1,1,1,0,17488,4164,-3516,-500,57,-65
M,1,447,73,511,375,3084,0,0,1,1,1,0,17456,4112,-3168,-273,-44,-121
M,1,370,0,478,394,2594,0,0,1,1,1,0,17344,4424,-3312,-342,42,-109
M,1,407,67,455,309,2555,0,0,1,1,1,0,17408,4184,-3484,-376,-216,-232
M,1,354,25,475,270,2541,0,0,1,1,1,0,17248,4700,-3484,-352,-503,53
M,1,375,10,527,291,2559,0,0,1,1,1,0,17300,4500,-3904,-771,-817,376
M,1,344,754,556,121,2483,0,0,1,1,1,0,17432,4336,-3940,-489,-330,365
M,1,349,592,631,354,2527,0,0,1,1,1,0,17356,4064,-3888,-925,63,237
M,1,528,507,509,0,2595,0,0,1,1,1,0,17348,3956,-3724,-508,150,158
M,1,368,635,528,297,2559,0,0,1,1,1,0,17436,4204,-3308,-450,277,-61
M,1,400,731,447,277,2583,0,0,1,1,1,0,17496,4348,-3152,-479,-19,-84
M,1,261,797,528,299,2555,0,0,1,1,1,0,17460,4524,-3104,-393,-257,4
M,1,399,735,386,163,2625,0,0,1,1,1,0,17376,4460,-3588,-508,-563,100
M,1,496,720,130,289,2316,0,0,1,1,1,0,17480,4404,-3768,-357,-352,220
M,1,316,688,534,273,2582,0,0,1,1,1,0,17408,4376,-3644,-772,-292,184
M,1,368,656,458,303,2608,0,0,1,1,1,0,17648,4020,-3612,-420,-231,144
M,1,1488,625,421,321,2661,0,0,1,1,1,0,17336,4100,-3616,-487,-293,22
M,1,240,723,582,123,2585,0,0,1,1,1,0,17396,4456,-3692,-417,-357,21
M,1,636,777,462,304,2622,0,0,1,1,1,0,17364,4368,-3724,-497,-217,155
M,1,320,688,439,224,2601,0,0,1,1,1,0,17412,4248,-3512,-456,-240,145
M,1,342,697,557,222,2618,0,0,1,1,1,0,17428,4140,-3608,-543,-230,51
M,1,337,645,536,237,2794,0,0,1,1,1,0,17292,4260,-3420,-428,-269,5
M,1,128,656,640,254,2493,0,0,1,1,1,0,17224,4244,-3552,-528,-458,30
M,1,314,676,536,364,2595,0,0,1,1,1,0,17372,4396,-3556,-334,-442,58
M,1,364,697,498,246,2546,0,0,1,1,1,0,17344,4256,-3720,-435,-552,-25
M,1,434,691,474,214,2608,0,0,1,1,1,0,17332,4456,-3956,-565,-345,111
M,1,535,699,582,239,2619,0,0,1,1,1,0,17336,4396,-3796,-568,-302,143
M,1,0,589,845,357,2525,0,0,1,1,1,0,17484,4196,-3836,-516,-67,140
M,1,304,770,780,0,2541,0,0,1,1,1,0,17392,4376,-3812,-613,-26,87
M,1,416,655,430,256,2593,0,0,1,1,1,0,17448,4328,-3528,-507,-95,85
N,1,318,681,736,207,2548,0,0,1,1,1,0,17624,4128,-2516,-520,404,203
N,1,333,624,503,232,2559,0,0,0,1,1,0,17516,4448,-2232,-522,336,476
N,1,408,658,528,268,2480,0,0,1,1,1,0,17744,3664,-2096,-533,-37,593
N,1,546,510,690,149,2631,0,0,0,1,1,0,17744,3292,-2276,-709,-50,216
N,1,210,663,637,197,2512,0,0,1,1,1,0,17828,3528,-2224,-604,-89,-140
N,1,328,673,283,254,2667,0,0,1,1,1,0,17820,3896,-1916,-191,-158,-286
N,1,321,640,575,217,2582,0,0,0,1,1,0,17524,4552,-2028,-515,-328,-111
N,1,410,608,592,160,2559,0,0,1,1,1,0,17628,4392,-2308,-547,-424,239
N,1,547,618,439,305,2643,0,0,0,1,1,0,17724,3848,-2384,-829,-515,362
N,1,78,807,574,135,2592,0,0,1,1,1,0,17872,3492,-2440,-682,-358,56
N,1,437,699,561,0,2559,0,0,1,1,1,0,17764,3552,-2228,-546,-349,-198
N,1,336,617,535,202,2581,0,0,0,1,1,0,17664,4156,-2244,-398,-342,-218
N,1,288,633,619,187,2597,0,0,1,1,1,0,17760,4156,-2304,-238,-362,-9
N,1,524,576,467,409,2633,0,0,0,1,1,0,17592,4160,-2572,-658,-374,-103
N,1,202,691,694,143,2553,0,0,1,1,1,0,17680,4076,-2504,-162,-297,-3
N,1,341,662,549,327,2602,0,0,1,1,1,0,17672,4152,-2440,-296,-671,107
N,1,327,632,523,213,2595,0,0,0,1,1,0,17552,4144,-2688,-415,-102,74
N,1,391,570,646,0,2559,0,0,1,1,1,0,17652,4276,-2324,-331,-94,133
N,1,529,544,483,199,2589,0,0,0,1,1,0,17788,4332,-2288,-564,-24,160
N,1,177,885,738,13,2479,0,0,1,1,1,0,17740,4156,-2480,-637,-34,211
N,1,416,673,540,278,2429,0,0,1,1,1,0,17820,4016,-2464,-684,-13,45
N,1,334,579,539,209,2593,0,0,0,1,1,0,17692,3696,-2456,-502,42,40
N,1,405,699,511,237,2496,0,0,1,1,1,0,17760,3816,-2312,-441,-82,-45
N,1,397,629,574,195,2582,0,0,0,1,1,0,18016,4076,-2348,-546,-142,-149
N,1,311,818,613,80,2559,0,0,1,1,1,0,17836,4056,-2380,-412,-210,15
N,1,352,665,569,246,2559,0,0,1,1,1,0,17704,4140,-2496,-324,185,-263
N,1,336,641,573,238,2535,0,0,0,1,1,0,17692,4492,-2272,-469,160,-142
N,1,421,593,283,234,2557,0,0,1,1,1,0,17484,4396,-1948,-693,176,-206
N,1,59,619,774,421,2479,0,0,0,1,1,0,17552,4592,-1636,-509,-5,241
N,1,352,776,502,99,2624,0,0,1,1,1,0,17604,4064,-2480,-900,-681,359
N,1,367,660,383,275,2585,0,0,1,1,1,0,17472,4056,-2464,-473,-167,19
N,1,336,635,477,241,2559,0,0,0,1,1,0,17592,4196,-1652,-105,-92,11
N,1,445,632,611,260,2582,0,0,1,1,1,0,17472,4352,-1680,177,-433,-137
N,1,275,443,944,311,2530,0,0,0,1,1,0,17464,4644,-1996,-194,-809,29
N,1,383,733,432,141,2592,0,0,1,1,1,0,17724,4256,-2640,64,-977,493
N,1,424,629,511,240,2581,0,0,1,1,1,0,17864,3720,-3628,-760,-662,-69
N,1,350,615,560,215,2590,0,0,0,1,1,0,17788,4064,-2724,-508,357,-201
N,1,393,606,640,0,2559,0,0,1,1,1,0,17588,4228,-1804,-443,303,-119
N,1,448,607,562,197,2615,0,0,0,1,1,0,17544,4700,-1824,-261,-222,-198
N,1,560,677,387,178,2675,0,0,1,1,1,0,17644,4860,-1940,-40,-340,71
N,1,304,240,615,358,2618,0,0,1,1,1,0,17756,4164,-2240,72,-848,776
N,1,331,663,561,185,2559,0,0,0,1,1,0,17860,3520,-3776,-1103,-1082,-27
N,1,416,556,546,327,2705,0,0,1,1,1,0,17676,4184,-2988,-1003,-76,-300
N,1,231,646,589,362,2601,0,0,0,1,1,0,17424,4424,-1932,-501,253,-186
N,1,661,647,359,211,2638,0,0,1,1,1,0,17388,4644,-1868,-106,-42,10
N,1,377,626,375,240,2559,0,0,1,1,1,0,17532,4716,-2280,-26,-440,70
N,1,377,629,481,209,2581,0,0,0,1,1,0,17572,4396,-3072,-255,-587,567
N,1,399,611,573,119,2606,0,0,1,1,1,0,17860,3376,-3340,-397,-605,478
N,1,393,611,674,187,2542,0,0,0,1,1,0,17936,3808,-3792,-1372,-141,-70
N,1,527,534,438,263,2593,0,0,1,1,1,0,17480,4080,-2964,-1525,942,-477
N,1,326,697,613,155,2592,0,0,1,1,1,0,17536,4612,-1708,-1112,1332,-362
N,1,367,634,529,231,2594,0,0,0,1,1,0,17408,4796,-1320,-1026,985,-650
N,1,225,679,0,284,2593,0,0,1,1,1,0,17696,4884,-1124,-352,474,-273
N,1,466,717,403,179,2693,0,0,0,1,1,0,17824,4412,-1860,-464,-673,183
N,1,75,580,708,271,2465,0,0,1,1,1,0,18040,4056,-3080,-704,-698,-169
N,1,247,491,538,211,2582,0,0,1,1,1,0,17728,4640,-2428,-858,530,-245
N,1,291,610,533,257,2593,0,0,0,1,1,0,17600,4728,-1288,-65,945,-100
N,1,420,640,553,302,2559,0,0,1,1,1,0,17440,4764,-1048,-306,267,-186
N,1,576,570,544,176,2556,0,0,0,1,1,0,17424,5168,-1364,111,-383,173
N,1,0,455,867,385,2427,0,0,1,1,1,0,17684,4392,-2596,98,-880,216
N,1,309,686,634,256,2527,0,0,1,1,1,0,17376,4300,-2852,-837,-153,-196
N,1,273,603,573,285,2608,0,0,0,1,1,0,17440,4716,-1452,-587,720,-157
N,1,320,639,543,221,2638,0,0,1,1,1,0,17344,5020,-964,-386,407,-133
N,1,231,622,631,334,2447,0,0,0,1,1,0,17444,4924,-1716,39,-742,356
N,1,511,504,473,277,2622,0,0,1,1,1,0,17560,4544,-2704,-845,-910,10
N,1,365,715,605,95,2559,0,0,1,1,1,0,17504,4984,-1900,-59,499,172
N,1,368,592,582,201,2593,0,0,0,1,1,0,17588,4472,-988,-408,38,298
N,1,368,594,560,240,2607,0,0,1,1,1,0,17716,5056,-1444,-314,-793,237
N,1,496,637,507,241,2662,0,0,0,1,1,0,17704,4944,-2560,-313,-646,459
N,1,688,272,403,400,2617,0,0,1,1,1,0,17868,4120,-2900,-392,-453,884
N,1,379,1072,592,311,2559,0,0,1,1,1,0,17952,3808,-1920,-949,-114,206
N,1,368,594,562,224,2580,0,0,0,1,1,0,17560,4364,-1420,-1297,-48,-238
N,1,173,635,583,235,2559,0,0,1,1,1,0,17472,4964,-1468,-733,-84,-261
N,1,249,790,489,216,2644,0,0,0,1,1,0,17540,5500,-1780,-445,-86,214
N,1,419,307,435,442,2678,0,0,1,1,1,0,17976,4708,-2132,278,-257,1520
N,1,364,641,544,193,2559,0,0,1,1,1,0,18284,2640,-2352,-145,-639,812
N,1,401,702,505,191,2603,0,0,0,1,1,0,18972,1104,-2648,1506,24,1006
N,1,363,625,486,298,2503,0,0,1,1,1,0,17104,4600,-1816,1687,78,-385
N,1,259,644,650,121,2593,0,0,0,1,1,0,17196,5832,-1180,2445,226,-1218
N,1,624,704,379,126,2686,0,0,1,1,1,0,17640,4672,-1224,821,581,-1096
N,1,350,487,621,270,2559,0,0,1,1,1,0,17572,4212,-1840,-37,-127,-1067
N,1,324,687,596,203,2554,0,0,0,1,1,0,17976,4944,-2380,-2150,-1934,-420
N,1,438,576,589,295,2606,0,0,1,1,1,0,17516,4828,-3712,-4397,-865,360
N,1,37,660,566,327,2522,0,0,0,1,1,0,18092,1204,-1020,659,1059,597
N,1,319,762,451,79,2657,0,0,1,1,1,0,16868,4364,-672,-2246,-1543,-3174
N,1,373,543,606,368,2531,0,0,1,1,1,0,16904,7616,-1620,1467,-581,-2459
N,1,365,651,511,272,2559,0,0,0,1,1,0,17012,6928,-1872,288,-1608,-1178
N,1,383,689,467,262,2556,0,0,1,1,1,0,17164,6144,-1316,1523,-1959,231
N,1,589,427,504,303,2639,0,0,0,1,1,0,17576,5012,-2656,2149,-1435,1120
N,1,140,671,714,235,2469,0,0,1,1,1,0,17460,6536,-1940,4613,-999,2106
N,1,425,547,528,176,2559,0,0,1,1,1,0,16668,4868,-3604,3791,-1348,3761
N,1,343,604,536,252,2601,0,0,0,1,1,0,16644,5380,-5468,1286,-1920,1533
N,1,592,633,594,177,2602,0,0,1,1,1,0,17772,3388,-4308,2414,119,1093
N,1,645,826,386,288,2559,0,0,0,1,1,0,17764,3108,-4228,567,-55,1891
N,1,0,602,644,335,2496,0,0,1,1,1,0,17828,2816,-5264,-815,647,451
N,1,348,706,630,339,2553,0,0,1,1,1,0,17564,3184,-3024,753,1981,-113
N,1,329,675,511,215,2583,0,0,0,1,1,0,17928,3844,-3808,-3091,786,-2711
N,1,499,637,539,279,2630,0,0,1,1,1,0,17612,4364,-3152,460,687,-26
N,1,528,713,450,163,2623,0,0,0,1,1,0,18000,3576,-4144,-819,1804,-930
N,1,155,511,702,304,2507,0,0,1,1,1,0,17676,5076,-3488,-1807,1869,-928
N,1,405,900,597,207,2559,0,0,1,1,1,0,17464,4824,-2456,-354,3077,911
N,1,359,599,529,234,2593,0,0,0,1,1,0,17412,3980,-2188,-1441,2836,-43
N,1,0,631,624,240,2650,0,0,1,1,1,0,17412,5088,-1328,-1382,2501,-153
N,1,461,655,528,258,2637,0,0,0,1,1,0,17616,4440,-424,-913,1985,582
N,1,85,636,824,323,2491,0,0,1,1,1,0,17676,3600,-88,-1062,897,584
N,1,409,643,477,263,2592,0,0,1,1,1,0,17748,3816,-108,-590,517,411
N,1,314,631,570,230,2559,0,0,0,1,1,0,17980,3860,-904,-596,-24,175
N,1,368,624,597,575,2583,0,0,1,1,1,0,17720,3940,-824,-392,400,31
N,1,562,395,441,293,2701,0,0,0,1,1,0,17952,4544,-28,-654,109,217
N,1,202,658,689,145,2544,0,0,1,1,1,0,17872,3832,-1312,-2482,-402,864
N,1,290,591,538,253,2607,0,0,1,1,1,0,18076,3284,-736,-765,371,667
N,1,347,618,574,240,2591,0,0,0,1,1,0,17832,3608,-912,-438,-356,-801
N,1,368,704,559,309,2525,0,0,1,1,1,0,17808,5048,-1296,-862,-155,-474
N,1,405,726,408,302,2483,0,0,0,1,1,0,17732,4324,-732,-284,225,600
N,1,115,612,705,289,2490,0,0,1,1,1,0,17984,4120,-764,-978,-163,234
N,1,283,561,529,305,2557,0,0,1,1,1,0,17844,4944,-568,-363,423,608
N,1,342,609,573,223,2544,0,0,0,1,1,0,18060,3716,-516,-1058,5,910
N,1,437,732,479,189,2629,0,0,1,1,1,0,18084,3268,-292,-510,-20,635
N,1,258,450,675,416,2487,0,0,0,1,1,0,18240,2864,-292,-274,-97,-112
N,1,338,832,500,71,2590,0,0,1,1,1,0,18004,4020,-460,-521,-297,-557
N,1,358,566,551,262,2559,0,0,1,1,1,0,17744,4472,-936,-543,-189,-441
N,1,395,653,509,256,2599,0,0,0,1,1,0,17736,4816,-636,-1478,-219,-82
N,1,408,576,528,242,2627,0,0,1,1,1,0,17740,4256,-288,-837,-261,484
N,1,509,606,613,208,2475,0,0,0,1,1,0,17960,3716,-364,-401,-351,483
N,1,375,757,464,101,2623,0,0,1,1,1,0,17888,3792,-568,-878,-537,189
N,1,432,581,465,272,2559,0,0,1,1,1,0,18084,3752,-452,-45,-309,143
N,1,368,654,495,256,2559,0,0,0,1,1,0,17876,3664,-488,-658,-528,-229
N,1,320,704,497,181,2627,0,0,1,1,1,0,17892,4220,-620,-524,-549,-173
N,1,99,635,608,191,2533,0,0,0,1,1,0,17808,4120,-328,-445,-598,-80
N,1,315,754,479,84,2611,0,0,1,1,1,0,17808,4384,-652,-584,-823,13
N,1,307,658,591,272,2559,0,0,1,1,1,0,17904,4352,-948,-478,-569,279
N,1,334,660,610,222,2594,0,0,0,1,1,0,18028,3852,-1004,-361,-482,365
N,1,368,662,589,183,2605,0,0,1,1,1,0,18020,3784,-724,-459,-352,142
N,1,386,507,785,112,2522,0,0,0,1,1,0,17924,3780,-820,-457,-407,-109
N,1,715,739,290,41,2751,0,0,1,1,1,0,17856,4216,-980,-475,-550,-85
N,1,370,678,551,237,2559,0,0,1,1,1,0,17968,4240,-952,-332,-420,80
N,1,296,652,531,254,2559,0,0,0,1,1,0,17828,4252,-1020,-407,-345,158
N,1,445,614,572,0,2559,0,0,1,1,1,0,17716,4160,-880,-278,-208,246
N,1,434,614,701,38,2623,0,0,0,1,1,0,17708,4004,-924,-181,-154,131
N,1,800,368,496,353,2583,0,0,1,1,1,0,17620,4052,-760,-267,-303,97
N,1,272,595,613,221,2559,0,0,1,1,1,0,17824,4132,-884,-181,-409,178
N,1,397,609,572,223,2555,0,0,0,1,1,0,17840,3816,-948,-118,-351,120
N,1,387,657,935,307,2559,0,0,1,1,1,0,17756,4032,-1252,-239,-373,59
N,1,389,848,615,0,2677,0,0,0,1,1,0,17900,3868,-748,186,-191,-94
N,1,432,387,528,496,2624,0,0,1,1,1,0,17860,4052,-104,315,-665,-323
N,1,318,595,479,268,2612,0,0,1,1,1,0,17760,4400,-1232,-294,-541,-132
N,1,369,690,562,226,2559,0,0,0,1,1,0,17948,4416,-1220,-490,-238,247
N,1,389,659,592,240,2529,0,0,1,1,1,0,17980,3960,-1424,-410,-185,269
N,1,749,653,400,222,2559,0,0,0,1,1,0,17924,3912,-1224,-495,-105,135
N,1,523,313,356,495,2748,0,0,1,1,1,0,17848,4056,-1108,-344,-235,-33
N,1,285,576,541,297,2592,0,0,1,1,1,0,17892,4280,-976,-157,-347,-20
N,1,401,630,507,206,2595,0,0,0,1,1,0,17776,4244,-1284,-566,-289,-40
N,1,383,607,655,268,2864,0,0,1,1,1,0,17864,4288,-1264,-335,-256,239
N,1,581,693,626,0,2559,0,0,0,1,1,0,17808,4148,-1388,-843,-61,205
N,1,225,441,644,351,2509,0,0,1,1,1,0,17832,4052,-1456,-722,93,113
N,1,375,656,563,240,2559,0,0,1,1,1,0,17768,4212,-1040,-900,216,137
N,1,297,625,540,238,2559,0,0,0,1,1,0,17672,4196,-624,-393,371,177
N,1,357,647,782,214,2610,0,0,1,1,1,0,17552,4324,-892,-505,98,247
N,1,494,611,576,108,2674,0,0,1,1,1,0,17864,4028,-1024,-321,45,263
N,1,5,446,848,250,2542,0,0,1,1,1,0,17880,3756,-696,191,117,150
N,1,351,670,582,240,2544,0,0,1,1,1,0,18004,4048,-1160,-312,20,209
N,1,329,654,544,192,2559,0,0,0,1,1,0,18008,3820,-1244,745,499,259
N,1,439,684,410,389,2591,0,0,1,1,1,0,17952,4040,-1224,170,549,-148
N,1,563,909,239,113,2671,0,0,1,1,1,0,17784,4372,-1176,-109,873,88
N,1,0,493,752,374,2399,0,0,1,1,1,0,17960,4296,-624,-146,795,307
N,1,403,652,533,186,2551,0,0,1,1,1,0,17824,4320,-236,-576,636,383
N,1,313,613,548,302,2557,0,0,0,1,1,0,17820,3680,256,-455,372,586
N,1,687,735,645,48,2503,0,0,1,1,1,0,17904,3488,-28,-305,-139,139
N,1,86,293,910,458,2447,0,0,0,1,1,0,18112,3780,-432,-92,10,2
N,1,604,563,355,275,2585,0,0,1,1,1,0,17956,3756,-980,-273,262,-181
N,1,358,644,595,304,2559,0,0,1,1,1,0,17900,4320,-288,-399,664,35
N,1,345,621,497,198,2559,0,0,0,1,1,0,17812,4068,432,-690,297,30
N,1,336,650,564,243,2613,0,0,1,1,1,0,17824,3900,472,-464,-258,84
N,1,161,501,747,323,2490,0,0,0,1,1,0,17868,3972,144,-383,-583,-52
N,1,342,689,662,161,2528,0,0,1,1,1,0,17836,3968,-276,-465,-583,-54
N,1,357,615,527,261,2593,0,0,1,1,1,0,17856,4236,-644,-522,-250,-131
N,1,298,627,576,259,2547,0,0,0,1,1,0,18112,4204,-344,49,-15,8
N,1,317,742,512,192,2544,0,0,1,1,1,0,18044,3984,-924,-909,147,-242
N,1,534,576,509,304,2587,0,0,0,1,1,0,17888,4184,-236,-504,604,-394
N,1,48,511,648,237,2521,0,0,1,1,1,0,17972,4428,836,-186,386,-98
N,1,271,674,619,277,2587,0,0,1,1,1,0,17692,4420,524,-512,-312,-175
N,1,351,605,543,253,2559,0,0,0,1,1,0,17620,4704,488,435,-490,60
N,1,241,763,601,179,2479,0,0,1,1,1,0,17852,4412,-56,-86,-1093,381
N,1,769,631,339,262,2658,0,0,0,1,1,0,18044,4004,-644,-103,-848,732
N,1,121,527,665,384,2559,0,0,1,1,1,0,18196,2992,-1308,92,-276,135
N,1,336,582,558,241,2559,0,0,1,1,1,0,18112,3688,-616,257,539,-382
N,1,337,655,564,256,2559,0,0,0,1,1,0,17760,4544,-116,416,403,-296
N,1,0,704,688,256,2590,0,0,1,1,1,0,17556,4600,-164,-73,179,-338
N,1,656,379,391,529,2557,0,0,0,1,1,0,17464,5108,172,331,244,26
N,1,276,771,592,452,2541,0,0,0,1,1,0,17996,4560,-288,-683,-410,546
N,1,411,707,529,209,2550,0,0,1,1,1,0,17972,3680,-688,-826,45,493
N,1,336,640,535,231,2559,0,0,0,1,1,0,17980,4020,12,-207,637,63
N,1,256,623,611,276,2608,0,0,1,1,1,0,17848,4256,232,-605,211,-24
N,1,645,719,210,153,2725,0,0,1,1,1,0,17716,4420,364,-551,59,99
N,1,443,618,464,312,2652,0,0,1,1,1,0,17800,4480,120,-584,-166,109
N,1,356,620,571,176,2582,0,0,1,1,1,0,17876,4492,292,-271,-298,444
N,1,400,659,490,207,2603,0,0,0,1,1,0,18116,3648,-268,-651,-432,578
N,1,299,669,543,420,2586,0,0,1,1,1,0,17984,3304,-560,-792,-1,-117
N,1,163,961,800,0,2447,0,0,0,1,1,0,17900,4252,236,-26,461,-478
N,1,23,572,0,285,2757,0,0,1,1,1,0,17596,4696,348,-382,51,-319
O,1,605,695,342,169,2742,0,0,0,1,1,0,0,0,0,0,0,0
O,1,469,643,621,242,2640,0,0,0,1,1,0,0,0,0,0,0,0
O,1,557,623,377,301,2625,0,0,0,1,1,0,0,0,0,0,0,0
O,1,410,646,565,289,2597,0,0,0,1,1,0,0,0,0,0,0,0
O,1,459,673,572,238,2611,0,0,0,1,1,0,0,0,0,0,0,0
O,1,469,701,511,213,2618,0,0,0,1,1,0,0,0,0,0,0,0
O,1,500,624,686,91,2602,0,0,0,1,1,0,0,0,0,0,0,0
O,1,743,762,373,127,2640,0,0,0,1,1,0,0,0,0,0,0,0
O,1,576,748,436,214,2595,0,0,0,1,1,0,0,0,0,0,0,0
O,1,433,558,621,374,2559,0,0,0,1,1,0,0,0,0,0,0,0
O,1,448,788,614,118,2559,0,0,0,1,1,0,0,0,0,0,0,0
O,1,323,712,539,256,2519,0,0,0,1,1,0,0,0,0,0,0,0
O,1,507,706,531,237,2636,0,0,0,1,1,0,0,0,0,0,0,0
O,1,463,689,560,218,2559,0,0,0,1,1,0,0,0,0,0,0,0
O,1,530,727,502,238,2639,0,0,0,1,1,0,0,0,0,0,0,0
O,1,477,624,483,282,2608,0,0,0,1,1,0,0,0,0,0,0,0
O,1,535,143,449,273,2780,0,0,0,1,1,0,0,0,0,0,0,0
O,1,612,538,389,432,2719,0,0,0,1,1,0,0,0,0,0,0,0
O,1,568,464,772,224,2640,0,0,0,1,1,0,0,0,0,0,0,0
O,1,354,608,681,356,2559,0,0,0,1,1,0,0,0,0,0,0,0
O,1,197,561,822,298,2736,0,0,0,1,1,0,0,0,0,0,0,0
O,1,447,638,656,294,2625,0,0,0,1,1,0,0,0,0,0,0,0
O,1,496,688,413,226,2615,0,0,0,1,1,0,0,0,0,0,0,0
O,1,498,689,464,0,2653,0,0,0,1,1,0,0,0,0,0,0,0
O,1,494,638,526,0,2583,0,0,0,1,1,0,0,0,0,0,0,0
O,1,478,673,386,0,2479,0,0,0,1,1,0,0,0,0,0,0,0
O,1,493,632,498,0,2638,0,0,0,1,1,0,0,0,0,0,0,0
O,1,449,486,701,349,2485,0,0,0,1,1,0,0,0,0,0,0,0
O,1,320,653,693,304,2544,0,0,0,1,1,0,0,0,0,0,0,0
O,1,424,703,573,0,2546,0,0,0,1,1,0,0,0,0,0,0,0
O,1,464,601,507,79,2641,0,0,0,1,1,0,0,0,0,0,0,0
O,1,595,667,525,0,2624,0,0,0,1,1,0,0,0,0,0,0,0
O,1,472,714,624,0,2627,0,0,0,1,1,0,0,0,0,0,0,0
O,1,496,640,464,0,2601,0,0,0,1,1,0,0,0,0,0,0,0
O,1,463,643,528,0,2623,0,0,0,1,1,0,0,0,0,0,0,0
O,1,478,609,498,0,2641,0,0,0,1,1,0,0,0,0,0,0,0
O,1,485,635,438,0,2611,0,0,0,1,1,0,0,0,0,0,0,0
O,1,448,742,485,293,2512,0,0,0,1,1,0,0,0,0,0,0,0
O,1,262,671,709,365,2537,0,0,0,1,1,0,0,0,0,0,0,0
O,1,323,688,656,210,2557,0,0,0,1,1,0,0,0,0,0,0,0
O,1,497,689,597,229,2477,0,0,0,1,1,0,0,0,0,0,0,0
O,1,436,694,544,196,2614,0,0,0,1,1,0,0,0,0,0,0,0
O,1,508,671,491,256,2640,0,0,0,1,1,0,0,0,0,0,0,0
O,1,496,690,528,214,2620,0,0,0,1,1,0,0,0,0,0,0,0
O,1,422,703,443,238,2633,0,0,0,1,1,0,0,0,0,0,0,0
O,1,576,544,418,358,2854,0,0,0,1,1,0,0,0,0,0,0,0
O,1,592,560,496,335,2698,0,0,0,1,1,0,0,0,0,0,0,0
O,1,592,403,681,446,2534,0,0,0,1,1,0,0,0,0,0,0,0
O,1,215,539,860,553,2435,0,0,0,1,1,0,0,0,0,0,0,0
O,1,474,597,568,251,2605,0,0,0,1,1,0,0,0,0,0,0,0
O,1,493,685,614,297,2608,0,0,0,1,1,0,0,0,0,0,0,0
O,1,492,662,556,272,2619,0,0,0,1,1,0,0,0,0,0,0,0
O,1,432,643,563,272,2626,0,0,0,1,1,0,0,0,0,0,0,0
O,1,497,713,495,198,2615,0,0,0,1,1,0,0,0,0,0,0,0
O,1,510,880,542,213,2608,0,0,0,1,1,0,0,0,0,0,0,0
O,1,1136,725,419,136,2698,0,0,0,1,1,0,0,0,0,0,0,0
O,1,430,704,483,354,2622,0,0,0,1,1,0,0,0,0,0,0,0
O,1,336,630,682,277,2581,0,0,0,1,1,0,0,0,0,0,0,0
O,1,499,753,426,173,2642,0,0,0,1,1,0,0,0,0,0,0,0
O,1,586,615,523,265,2338,0,0,0,1,1,0,0,0,0,0,0,0
O,1,539,710,506,250,2607,0,0,0,1,1,0,0,0,0,0,0,0
O,1,496,671,507,243,2633,0,0,0,1,1,0,0,0,0,0,0,0
O,1,445,654,550,260,2599,0,0,0,1,1,0,0,0,0,0,0,0
O,1,448,627,576,310,2618,0,0,0,1,1,0,0,0,0,0,0,0
O,1,1260,752,549,327,2848,0,0,0,1,1,0,0,0,0,0,0,0
O,1,579,754,382,283,2719,0,0,0,1,1,0,0,0,0,0,0,0
O,1,572,550,537,137,2678,0,0,0,1,1,0,0,0,0,0,0,0
O,1,680,414,338,322,2616,0,0,0,1,1,0,0,0,0,0,0,0
O,1,448,534,592,331,2592,0,0,0,1,1,0,0,0,0,0,0,0
O,1,483,609,432,272,2609,0,0,0,1,1,0,0,0,0,0,0,0
O,1,447,688,529,310,2624,0,0,0,1,1,0,0,0,0,0,0,0
O,1,477,699,548,305,2624,0,0,0,1,1,0,0,0,0,0,0,0
O,1,502,738,544,258,2613,0,0,0,1,1,0,0,0,0,0,0,0
O,1,444,811,507,272,2545,0,0,0,1,1,0,0,0,0,0,0,0
O,1,580,711,459,63,2624,0,0,0,1,1,0,0,0,0,0,0,0
O,1,508,697,430,293,2651,0,0,0,1,1,0,0,0,0,0,0,0
O,1,631,443,407,507,2699,0,0,0,1,1,0,0,0,0,0,0,0
O,1,362,581,577,354,2559,0,0,0,1,1,0,0,0,0,0,0,0
O,1,371,661,602,466,2559,0,0,0,1,1,0,0,0,0,0,0,0
O,1,432,607,742,307,2611,0,0,0,1,1,0,0,0,0,0,0,0
O,1,418,668,560,241,2593,0,0,0,1,1,0,0,0,0,0,0,0
O,1,522,684,540,240,2655,0,0,0,1,1,0,0,0,0,0,0,0
O,1,455,673,586,302,2595,0,0,0,1,1,0,0,0,0,0,0,0
O,1,403,674,343,167,2641,0,0,0,1,1,0,0,0,0,0,0,0
O,1,415,816,645,335,2545,0,0,0,1,1,0,0,0,0,0,0,0
O,1,375,657,559,308,2683,0,0,0,1,1,0,0,0,0,0,0,0
O,1,685,833,252,207,2723,0,0,0,1,1,0,0,0,0,0,0,0
O,1,544,620,475,342,2617,0,0,0,1,1,0,0,0,0,0,0,0
O,1,503,721,435,353,2647,0,0,0,1,1,0,0,0,0,0,0,0
O,1,453,661,569,272,2606,0,0,0,1,1,0,0,0,0,0,0,0
O,1,505,624,477,308,2616,0,0,0,1,1,0,0,0,0,0,0,0
O,1,421,727,561,240,2639,0,0,0,1,1,0,0,0,0,0,0,0
O,1,471,707,592,383,2631,0,0,0,1,1,0,0,0,0,0,0,0
O,1,537,276,421,111,2547,0,0,0,1,1,0,0,0,0,0,0,0
O,1,423,695,500,230,2621,0,0,0,1,1,0,0,0,0,0,0,0
O,1,455,499,569,425,2602,0,0,0,1,1,0,0,0,0,0,0,0
O,1,193,534,833,302,2461,0,0,0,1,1,0,0,0,0,0,0,0
O,1,213,627,469,323,2670,0,0,0,1,1,0,0,0,0,0,0,0
O,1,383,752,566,211,2593,0,0,0,1,1,0,0,0,0,0,0,0
O,1,471,649,502,240,2610,0,0,0,1,1,0,0,0,0,0,0,0
O,1,459,646,544,272,2636,0,0,0,1,1,0,0,0,0,0,0,0
O,1,503,656,482,279,2623,0,0,0,1,1,0,0,0,0,0,0,0
O,1,442,727,547,471,2594,0,0,0,1,1,0,0,0,0,0,0,0
O,1,495,624,638,346,2544,0,0,0,1,1,0,0,0,0,0,0,0
O,1,296,670,579,499,2481,0,0,0,1,1,0,0,0,0,0,0,0
O,1,389,688,653,228,2559,0,0,0,1,1,0,0,0,0,0,0,0
O,1,401,695,603,240,2559,0,0,0,1,1,0,0,0,0,0,0,0
O,1,405,740,1076,176,2449,0,0,0,1,1,0,0,0,0,0,0,0
O,1,409,738,620,265,2607,0,0,0,1,1,0,0,0,0,0,0,0
O,1,421,683,499,274,2608,0,0,0,1,1,0,0,0,0,0,0,0
O,1,525,656,467,225,2640,0,0,0,1,1,0,0,0,0,0,0,0
O,1,479,640,530,259,2610,0,0,0,1,1,0,0,0,0,0,0,0
O,1,448,699,455,222,2610,0,0,0,1,1,0,0,0,0,0,0,0
O,1,532,624,451,363,2659,0,0,0,1,1,0,0,0,0,0,0,0
O,1,421,670,523,468,2604,0,0,0,1,1,0,0,0,0,0,0,0
O,1,331,563,613,413,2544,0,0,0,1,1,0,0,0,0,0,0,0
O,1,246,581,774,483,2391,0,0,0,1,1,0,0,0,0,0,0,0
O,1,477,678,483,291,2710,0,0,0,1,1,0,0,0,0,0,0,0
O,1,398,644,560,263,2608,0,0,0,1,1,0,0,0,0,0,0,0
O,1,490,691,544,254,2608,0,0,0,1,1,0,0,0,0,0,0,0
O,1,565,688,496,256,2606,0,0,0,1,1,0,0,0,0,0,0,0
O,1,511,699,489,320,2559,0,0,0,1,1,0,0,0,0,0,0,0
O,1,425,659,565,321,2588,0,0,0,1,1,0,0,0,0,0,0,0
O,1,335,624,751,293,2527,0,0,0,1,1,0,0,0,0,0,0,0
O,1,296,687,752,258,2519,0,0,0,1,1,0,0,0,0,0,0,0
O,1,334,704,656,224,2581,0,0,0,1,1,0,0,0,0,0,0,0
O,1,441,794,888,212,2736,0,0,0,1,1,0,0,0,0,0,0,0
O,1,402,663,551,298,2495,0,0,0,1,1,0,0,0,0,0,0,0
O,1,532,671,560,275,2639,0,0,0,1,1,0,0,0,0,0,0,0
O,1,469,689,560,237,2611,0,0,0,1,1,0,0,0,0,0,0,0
O,1,462,634,543,272,2604,0,0,0,1,1,0,0,0,0,0,0,0
O,1,222,656,581,210,2427,0,0,0,1,1,0,0,0,0,0,0,0
O,1,511,752,487,183,2659,0,0,0,1,1,0,0,0,0,0,0,0
O,1,570,607,558,292,2599,0,0,0,1,1,0,0,0,0,0,0,0
O,1,335,875,693,30,2513,0,0,0,1,1,0,0,0,0,0,0,0
O,1,626,631,401,270,2665,0,0,0,1,1,0,0,0,0,0,0,0
O,1,435,629,455,336,2613,0,0,0,1,1,0,0,0,0,0,0,0
O,1,554,745,590,279,2559,0,0,0,1,1,0,0,0,0,0,0,0
O,1,498,660,500,247,2610,0,0,0,1,1,0,0,0,0,0,0,0
O,1,510,672,534,297,2629,0,0,0,1,1,0,0,0,0,0,0,0
O,1,401,640,554,259,2608,0,0,0,1,1,0,0,0,0,0,0,0
O,1,369,602,569,255,2586,0,0,0,1,1,0,0,0,0,0,0,0
O,1,618,854,490,298,2647,0,0,0,1,1,0,0,0,0,0,0,0
O,1,381,610,415,430,2703,0,0,0,1,1,0,0,0,0,0,0,0
O,1,240,611,720,358,2559,0,0,0,1,1,0,0,0,0,0,0,0
O,1,384,715,511,349,2590,0,0,0,1,1,0,0,0,0,0,0,0
O,1,388,610,558,273,2593,0,0,0,1,1,0,0,0,0,0,0,0
O,1,463,687,497,231,2623,0,0,0,1,1,0,0,0,0,0,0,0
O,1,481,619,587,255,2655,0,0,0,1,1,0,0,0,0,0,0,0
O,1,464,646,448,251,2614,0,0,0,1,1,0,0,0,0,0,0,0
O,1,416,747,496,307,2467,0,0,0,1,1,0,0,0,0,0,0,0
O,1,480,734,436,213,2640,0,0,0,1,1,0,0,0,0,0,0,0
O,1,608,529,304,500,2672,0,0,0,1,1,0,0,0,0,0,0,0
O,1,455,539,586,450,2624,0,0,0,1,1,0,0,0,0,0,0,0
O,1,323,676,607,335,2550,0,0,0,1,1,0,0,0,0,0,0,0
O,1,436,642,619,331,2626,0,0,0,1,1,0,0,0,0,0,0,0
O,1,424,720,553,222,2618,0,0,0,1,1,0,0,0,0,0,0,0
O,1,414,671,571,280,2606,0,0,0,1,1,0,0,0,0,0,0,0
O,1,435,687,482,278,2615,0,0,0,1,1,0,0,0,0,0,0,0
O,1,473,666,497,265,2640,0,0,0,1,1,0,0,0,0,0,0,0
O,1,532,656,513,240,2619,0,0,0,1,1,0,0,0,0,0,0,0
O,1,324,535,457,296,2625,0,0,0,1,1,0,0,0,0,0,0,0
O,1,593,583,580,373,2587,0,0,0,1,1,0,0,0,0,0,0,0
O,1,386,572,651,325,2537,0,0,0,1,1,0,0,0,0,0,0,0
O,1,202,550,847,442,2423,0,0,0,1,1,0,0,0,0,0,0,0
O,1,496,560,167,344,2589,0,0,0,1,1,0,0,0,0,0,0,0
O,1,464,656,496,272,2638,0,0,0,1,1,0,0,0,0,0,0,0
O,1,441,694,578,246,2608,0,0,0,1,1,0,0,0,0,0,0,0
O,1,453,739,486,252,2644,0,0,0,1,1,0,0,0,0,0,0,0
O,1,582,670,404,205,2614,0,0,0,1,1,0,0,0,0,0,0,0
O,1,464,682,544,323,2625,0,0,0,1,1,0,0,0,0,0,0,0
O,1,561,779,461,239,2655,0,0,0,1,1,0,0,0,0,0,0,0
O,1,617,574,435,295,2629,0,0,0,1,1,0,0,0,0,0,0,0
O,1,557,592,489,368,2642,0,0,0,1,1,0,0,0,0,0,0,0
O,1,423,528,387,410,2665,0,0,0,1,1,0,0,0,0,0,0,0
O,1,477,671,472,303,2609,0,0,0,1,1,0,0,0,0,0,0,0
O,1,410,645,528,345,2622,0,0,0,1,1,0,0,0,0,0,0,0
O,1,448,657,572,305,2614,0,0,0,1,1,0,0,0,0,0,0,0
O,1,430,650,596,293,2591,0,0,0,1,1,0,0,0,0,0,0,0
O,1,495,689,529,336,2583,0,0,0,1,1,0,0,0,0,0,0,0
O,1,333,1431,556,304,2638,0,0,0,1,1,0,0,0,0,0,0,0
O,1,220,896,558,198,2588,0,0,0,1,1,0,17792,4228,-672,-338,-391,-227
O,1,567,723,438,207,2656,0,0,0,1,1,0,17824,4480,-800,-253,-587,-149
O,1,438,637,510,335,2660,0,0,0,1,1,0,17820,4500,-896,-321,-482,-30
O,1,447,688,526,259,2611,0,0,0,1,1,0,17776,4440,-1316,-473,-378,98
O,1,418,752,963,274,2639,0,0,0,1,1,0,17692,4192,-1168,-451,-84,149
O,1,339,656,549,248,2678,0,0,0,1,1,0,17684,4292,-800,-571,120,192
O,1,597,679,369,235,2704,0,0,0,1,1,0,17724,4376,-680,-670,-8,52
O,1,502,592,470,237,2607,0,0,0,1,1,0,17768,4432,-684,-346,-153,92
O,1,401,624,587,268,2611,0,0,0,1,1,0,17740,4376,-800,-296,-389,194
O,1,569,638,499,322,2643,0,0,0,1,1,0,17844,4328,-1072,-414,-532,115
O,1,368,624,620,403,2448,0,0,0,1,1,0,17644,4308,-1128,-388,-606,-8
O,1,615,786,396,189,2648,0,0,0,1,1,0,17652,4456,-1100,-668,-417,123
O,1,495,675,487,253,2624,0,0,0,1,1,0,17544,4396,-1040,-473,-141,380
O,1,453,695,529,304,2617,0,0,0,1,1,0,17772,4328,-772,-525,-219,420
O,1,528,638,525,258,2657,0,0,0,1,1,0,17924,4112,-744,-255,-555,270
O,1,333,543,822,263,2654,0,0,0,1,1,0,18568,4512,-948,-579,-614,155
O,1,670,704,349,247,2670,0,0,0,1,1,0,18560,4020,-940,-213,-405,-370
O,1,451,641,559,298,2618,0,0,0,1,1,0,17132,3528,-980,-193,-568,-466
O,1,491,670,511,256,2626,0,0,0,1,1,0,17640,4320,-1488,-942,-1488,-331
P,1,532,663,688,553,2627,1,0,1,1,1,1,3636,840,-16376,117,39,-251
P,1,433,677,710,558,2611,1,0,1,1,1,1,3712,316,-16268,-549,-500,267
P,1,431,656,0,666,2620,1,0,1,1,1,1,3424,332,-16520,-301,-456,15
P,1,430,628,674,688,2544,1,0,1,1,1,1,3456,348,-16540,-122,-179,-114
P,1,348,791,768,446,2559,1,0,1,1,1,1,3616,488,-16444,-333,-424,31
P,1,355,662,735,607,2633,1,0,1,1,1,1,3472,536,-16556,-608,-425,-2
P,1,407,703,686,557,2609,1,0,1,1,1,1,3448,680,-16736,-460,-307,-71
P,1,500,741,645,557,2880,1,0,1,1,1,1,3404,396,-16684,-324,273,-182
P,1,361,631,793,727,2482,1,0,1,1,1,1,3548,400,-16044,-273,330,-114
P,1,659,764,458,527,2775,1,0,1,1,1,1,3688,396,-16132,-476,-260,-107
P,1,452,677,720,603,2640,1,0,1,1,1,1,3460,652,-16388,-284,-611,-18
P,1,485,627,689,559,2635,1,0,1,1,1,1,3208,376,-16624,-364,-346,241
P,1,433,693,816,523,2641,1,0,1,1,1,1,3252,196,-16620,-462,-23,-19
P,1,709,752,629,377,2745,1,0,1,1,1,1,3476,524,-16400,-479,107,-50
P,1,369,507,887,694,2545,1,0,1,1,1,1,3396,240,-16180,-564,-324,205
P,1,511,716,835,576,2604,1,0,1,1,1,1,3244,688,-15912,-474,-370,144
P,1,445,709,707,559,2622,1,0,1,1,1,1,3316,772,-16100,-278,-212,249
P,1,403,751,694,591,3011,1,0,1,1,1,1,3724,992,-16308,48,104,516
P,1,463,682,755,496,2662,1,0,1,1,1,1,4068,540,-16576,578,300,453
P,1,301,785,854,563,2582,1,0,1,1,1,1,4044,-256,-16420,191,-314,650
P,1,427,745,695,600,2631,1,0,1,1,1,1,3804,-568,-16496,-444,-472,489
P,1,417,701,715,591,2611,1,0,1,1,1,1,3460,-536,-16700,-466,-618,65
P,1,448,699,755,493,2677,1,0,1,1,1,1,3160,-32,-16616,-678,-357,31
P,1,323,848,898,397,2666,1,0,1,1,1,1,3220,124,-16472,-703,-234,6
P,1,511,586,654,570,2625,1,0,1,1,1,1,3380,372,-16184,-495,-97,18
P,1,164,705,531,623,2643,1,0,1,1,1,1,3488,408,-16288,-559,409,10
P,1,471,673,688,560,2621,1,0,1,1,1,1,3824,156,-16284,-491,64,219
P,1,211,727,716,641,2640,1,0,1,1,1,1,3788,44,-16208,-252,-279,62
P,1,535,689,602,645,2672,1,0,1,1,1,1,3824,48,-16344,-352,-538,48
P,1,98,599,794,638,2559,1,0,1,1,1,1,3624,-20,-16348,-525,-548,89
P,1,466,743,688,914,2663,1,0,1,1,1,1,3476,28,-16544,-533,-558,57
P,1,471,737,702,533,2624,1,0,1,1,1,1,3324,-80,-16600,-696,-364,188
P,1,337,718,848,652,2609,1,0,1,1,1,1,3448,80,-16644,-384,209,-20
P,1,361,677,752,427,2624,1,0,1,1,1,1,3752,32,-16348,-522,121,50
P,1,574,499,693,687,2613,1,0,1,1,1,1,3640,140,-16300,-551,10,37
P,1,432,1328,754,538,2559,1,0,1,1,1,1,3728,240,-16088,-500,-189,113
P,1,430,676,702,577,2614,1,0,1,1,1,1,3628,92,-16352,-657,-326,217
P,1,381,645,704,561,2653,1,0,1,1,1,1,3468,44,-16628,-673,-145,75
P,1,441,763,785,551,2607,1,0,1,1,1,1,3576,164,-16488,-473,111,23
P,1,205,618,995,680,2489,1,0,1,1,1,1,3744,-96,-16452,-351,49,-125
P,1,472,677,80,533,2637,1,0,1,1,1,1,3840,84,-16260,-611,148,-246
P,1,411,695,726,511,2640,1,0,1,1,1,1,3864,364,-16264,-449,-29,-122
P,1,401,707,754,606,2617,1,0,1,1,1,1,3864,272,-16352,-519,-334,363
P,1,447,687,934,567,2655,1,0,1,1,1,1,3796,-164,-16120,-555,-734,554
P,1,553,452,599,749,2682,1,0,1,1,1,1,3580,-248,-16676,-707,-676,294
P,1,315,1460,769,531,2559,1,0,1,1,1,1,3520,140,-16608,-434,-47,-152
P,1,458,725,714,591,2607,1,0,1,1,1,1,3752,112,-16304,-508,131,-43
P,1,409,763,702,539,2646,1,0,1,1,1,1,3776,188,-15988,-616,158,-84
P,1,482,810,511,487,2775,1,0,1,1,1,1,3936,244,-16292,-704,140,126
P,1,115,575,958,662,2494,1,0,1,1,1,1,3880,-100,-16572,-386,-307,186
P,1,306,807,624,561,2624,1,0,1,1,1,1,3616,-16,-16672,-582,-208,17
P,1,391,690,693,565,2637,1,0,1,1,1,1,3468,-56,-16712,-710,76,-105
P,1,505,782,725,551,2608,1,0,1,1,1,1,3744,120,-16380,-429,-79,-194
P,1,528,666,666,638,2666,1,0,1,1,1,1,4016,364,-16100,-507,-6,-103
P,1,247,718,912,529,2559,1,0,1,1,1,1,4020,80,-16332,-813,-369,239
P,1,521,723,626,592,2656,1,0,1,1,1,1,3968,-40,-17096,-933,-186,415
P,1,355,641,714,598,2634,1,0,1,1,1,1,4136,-200,-17268,-810,328,-66
P,1,359,703,742,541,2614,1,0,1,1,1,1,4036,8,-16640,-844,-464,-291
P,1,464,679,645,615,2608,1,0,1,1,1,1,3672,920,-16000,-1541,-505,255
P,1,361,849,694,386,2608,1,0,1,1,1,1,3796,1140,-15600,-1108,-223,446
P,1,214,755,476,625,2493,1,0,1,1,1,1,3904,424,-15824,-646,-371,346
P,1,432,613,659,535,2623,1,0,1,1,1,1,3700,60,-16320,-1201,-317,599
P,1,418,768,687,571,2592,1,0,1,1,1,1,3628,252,-16404,-985,13,-88
P,1,440,681,734,92,2605,1,0,1,1,1,1,3656,896,-16368,-457,451,-352
P,1,863,443,667,646,2688,1,0,1,1,1,1,3832,832,-16060,-361,374,34
P,1,292,782,820,673,2634,1,0,1,1,1,1,4064,920,-16072,-390,-224,174
P,1,503,678,689,526,2640,1,0,1,1,1,1,3952,496,-16356,-609,-542,382
P,1,428,737,752,575,2624,1,0,1,1,1,1,4140,352,-16476,-519,-469,82
P,1,462,721,706,704,2599,1,0,1,1,1,1,4136,316,-16644,-469,-729,-150
P,1,507,404,816,720,2545,1,0,1,1,1,1,3896,388,-16744,-760,-246,-187
P,1,287,735,746,464,2624,1,0,1,1,1,1,3828,364,-16564,-449,245,-531
P,1,461,720,685,538,2643,1,0,1,1,1,1,3748,540,-16412,-475,833,-647
P,1,443,672,701,551,2643,1,0,1,1,1,1,3880,800,-16304,-658,792,-429
P,1,478,687,754,496,2593,1,0,1,1,1,1,3964,1064,-16112,-547,368,-34
P,1,397,721,599,719,2559,1,0,1,1,1,1,4128,872,-15940,-535,174,213
P,1,401,922,743,429,2599,1,0,1,1,1,1,4092,548,-15940,-888,-76,452
P,1,336,695,697,541,2621,1,0,1,1,1,1,4204,352,-16132,-207,-180,70
P,1,447,636,688,591,2630,1,0,1,1,1,1,4340,568,-16480,-306,-48,-10
P,1,455,679,752,608,2625,1,0,1,1,1,1,4288,1040,-16448,-40,38,78
P,1,221,809,718,473,2640,1,0,1,1,1,1,4580,1344,-16584,138,231,341
P,1,613,646,639,607,2690,1,0,1,1,1,1,3952,332,-16628,678,664,1203
P,1,439,748,636,569,2603,1,0,1,1,1,1,4244,900,-15644,399,-818,959
P,1,453,695,662,509,2639,1,0,1,1,1,1,4060,1332,-15628,380,-909,1542
P,1,437,722,675,640,2651,1,0,1,1,1,1,4360,292,-15496,-71,336,2318
P,1,475,731,755,427,2645,1,0,1,1,1,1,5248,-1068,-15660,1385,982,1154
P,1,444,496,704,663,2653,1,0,1,1,1,1,5584,-1576,-16136,699,1325,351
P,1,419,640,693,464,2263,1,0,1,1,1,1,5244,-1040,-16968,887,915,-404
P,1,431,720,743,542,2591,1,0,1,1,1,1,4940,-296,-17068,987,377,-770
P,1,398,699,698,592,2624,1,0,1,1,1,1,5104,-300,-16640,398,-145,-194
P,1,487,630,754,528,2640,1,0,1,1,1,1,4644,-1136,-16116,-143,-217,638
P,1,495,613,688,674,2638,1,0,1,1,1,1,4448,-1140,-15588,-216,-695,257
P,1,416,718,740,603,2553,1,0,1,1,1,1,4672,-976,-16332,-505,-1363,287
P,1,490,702,688,477,2616,1,0,1,1,1,1,4728,-1028,-16252,-1341,-1032,986
P,1,367,720,687,433,2601,1,0,1,1,1,1,5164,-1112,-16232,-671,-955,522
P,1,552,743,631,494,2672,1,0,1,1,1,1,5508,-1020,-16452,-354,-1316,204
P,1,247,678,883,599,2586,1,0,1,1,1,1,5388,-936,-16308,-942,-1875,611
P,1,394,773,659,541,2674,1,0,1,1,1,1,4616,-1332,-16284,-1021,-2693,902
P,1,371,663,752,582,2643,1,0,1,1,1,1,3552,-1196,-16780,-2001,-2768,997
P,1,430,727,725,1079,2597,1,0,1,1,1,1,3052,-820,-17060,-1490,-1661,381
P,1,358,688,741,381,2639,1,0,1,1,1,1,2852,8,-16476,-1674,256,68
P,1,367,787,743,377,2622,1,0,1,1,1,1,2912,-284,-15732,135,1598,-28
P,1,464,565,784,528,2547,1,0,1,1,1,1,3676,172,-15716,-11,1534,22
P,1,471,704,688,530,2635,1,0,1,1,1,1,4248,564,-15260,1128,1375,118
P,1,432,678,733,557,2630,1,0,1,1,1,1,4280,112,-15360,965,384,266
P,1,563,704,660,529,2627,1,0,1,1,1,1,4636,-384,-15492,722,-519,792
P,1,546,779,576,484,2654,1,0,1,1,1,1,4224,-1060,-16640,323,-1320,1385
P,1,484,669,576,549,2685,1,0,1,1,1,1,3832,-1272,-17008,-321,-371,1645
P,1,374,666,724,564,2635,1,0,1,1,1,1,4168,-1476,-16088,1164,1623,386
P,1,432,701,674,530,2620,1,0,1,1,1,1,5340,-1404,-16328,1922,2262,-230
P,1,310,555,835,567,2519,1,0,1,1,1,1,5056,-2044,-15808,328,1063,-67
P,1,503,858,577,437,2661,1,0,1,1,1,1,5192,-372,-15600,952,845,-561
P,1,335,623,753,581,2586,1,0,1,1,1,1,5980,-1944,-16020,2198,1153,564
P,1,417,742,734,528,2597,1,0,1,1,1,1,5404,-2832,-16056,932,196,1300
P,1,423,659,752,528,2625,1,0,1,1,1,1,5164,-3788,-17192,-767,-954,1217
P,1,437,546,840,556,2418,1,0,1,1,1,1,5004,-3440,-17012,-532,-1367,409
P,1,592,719,563,558,2699,1,0,1,1,1,1,5092,-3720,-16572,-665,-1811,-681
P,1,343,618,912,956,2511,1,0,1,1,1,1,4008,-2496,-17072,-1684,-1476,-686
P,1,485,649,741,551,2610,1,0,1,1,1,1,3856,-1796,-16768,-574,-862,-777
P,1,445,690,702,541,2628,1,0,1,1,1,1,3288,-1764,-16352,-1988,234,106
P,1,469,688,692,568,2607,1,0,1,1,1,1,3664,-772,-15420,318,1234,-77
P,1,234,613,924,606,2525,1,0,1,1,1,1,4204,-1776,-14968,1573,633,835
P,1,544,751,625,368,2589,1,0,1,1,1,1,4540,-2580,-15992,-632,-210,2816
P,1,414,676,658,560,2623,1,0,1,1,1,1,4816,-3416,-16692,-278,70,2122
P,1,402,702,715,508,2650,1,0,1,1,1,1,4564,-4124,-16076,-1540,1550,850
P,1,544,598,699,563,2614,1,0,1,1,1,1,6024,-1564,-14724,268,1417,-1193
P,1,359,818,683,386,2735,1,0,1,1,1,1,5624,-1076,-15892,-707,-882,422
P,1,467,576,725,641,2715,1,0,1,1,1,1,5156,-2496,-15920,-1278,-1663,1516
P,1,417,691,698,469,2559,1,0,1,1,1,1,5044,-3416,-16228,-862,-1328,1016
P,1,379,685,714,526,2640,1,0,1,1,1,1,5504,-3908,-16200,-597,-345,-136
P,1,407,698,728,571,2619,1,0,1,1,1,1,5932,-3240,-16060,-1368,-647,-866
P,1,802,674,635,436,2736,1,0,1,1,1,1,5820,-1660,-15604,-999,-1264,-1822
P,1,228,642,828,545,2559,1,0,1,1,1,1,5344,-1184,-15912,-1194,-2215,-1106
P,1,264,772,692,532,2590,1,0,1,1,1,1,4308,-1596,-15960,-1915,-2208,-484
P,1,368,687,715,546,2613,1,0,1,1,1,1,4040,-1880,-16048,-1824,-2522,-310
P,1,831,625,901,572,2683,1,0,1,1,1,1,3592,-2180,-16784,-1516,-3112,-200
P,1,462,695,751,510,2670,1,0,1,1,1,1,2348,-1696,-16408,-2259,-2723,89
P,1,307,999,922,221,2581,1,0,1,1,1,1,2476,-940,-16424,-1770,-2226,-224
P,1,386,683,711,535,2659,1,0,1,1,1,1,2688,-604,-16388,-1372,-1383,-262
P,1,459,706,735,502,2602,1,0,1,1,1,1,2296,-268,-15916,-543,-568,-406
P,1,352,743,736,504,2602,0,0,1,1,1,1,1908,-1060,-15844,-575,-575,51
P,1,544,555,735,510,2624,1,0,1,1,1,1,2128,-1048,-16212,-14,537,-71
P,1,529,777,466,448,2690,1,0,1,1,1,1,2860,-1200,-16672,306,755,272
P,1,421,686,703,526,2636,1,0,1,1,1,1,3636,-1256,-16864,-778,-271,492
P,1,421,693,655,534,2618,1,0,1,1,1,1,4068,-1024,-16432,147,-1084,220
P,1,336,752,699,363,2629,1,0,1,1,1,1,3588,-2716,-17100,-968,-1540,630
P,1,572,591,788,511,2675,1,0,1,1,1,1,2688,-2748,-16676,-2384,-463,664
P,1,280,738,796,551,2522,1,0,1,1,1,1,2488,-2132,-15856,-428,-170,-912
P,1,323,687,718,482,2602,1,0,1,1,1,1,2324,-1112,-16060,-1452,-200,-1174
P,1,432,708,746,564,2627,1,0,1,1,1,1,2892,1352,-16116,117,-83,-1208
P,1,391,531,663,528,2634,1,0,1,1,1,1,2848,-112,-17052,4,-7,522
P,1,335,693,691,551,2594,1,0,1,1,1,1,2788,-2052,-16888,-2240,632,1493
P,1,629,656,597,527,2672,1,0,1,1,1,1,3744,-1428,-16116,-667,319,-78
P,1,416,647,727,546,2643,1,0,1,1,1,1,3740,-1664,-16028,156,-476,-187
P,1,400,671,692,541,2647,1,0,1,1,1,1,3608,-1780,-16564,-1717,-1353,-730
P,1,419,524,784,561,2599,1,0,1,1,1,1,2812,-492,-17204,-1996,-394,-1522
P,1,412,726,669,459,2618,1,0,1,1,1,1,2212,-324,-15704,-763,2219,-1584
P,1,537,375,595,758,2734,1,0,1,1,1,1,4144,176,-14392,852,1247,-1704
P,1,389,601,746,448,2508,1,0,1,1,1,1,4080,-232,-15916,-327,-2830,4
P,1,448,675,717,541,2610,1,0,1,1,1,1,1860,-852,-17684,-2970,-2930,1349
P,1,459,708,678,533,2623,1,0,1,1,1,1,992,-644,-17544,-1835,-512,207
P,1,580,982,635,479,2641,1,0,1,1,1,1,1500,-356,-17212,68,1854,-971
P,1,217,845,759,397,2624,1,0,1,1,1,1,2804,-236,-16144,425,2135,-254
P,1,556,631,597,591,2659,1,0,1,1,1,1,3720,-356,-15832,-356,681,716
P,1,453,679,703,505,2640,1,0,1,1,1,1,3524,-608,-16092,-1040,-800,1391
P,1,374,743,786,544,2597,1,0,1,1,1,1,3512,-864,-16452,-818,-917,890
P,1,511,539,603,538,2743,1,0,1,1,1,1,3296,-620,-16744,-660,-401,342
P,1,482,846,602,405,2687,1,0,1,1,1,1,3464,-448,-16668,-419,115,-35
P,1,500,592,560,547,2654,1,0,1,1,1,1,3612,-376,-16648,-279,302,-115
P,1,432,704,688,523,2624,1,0,1,1,1,1,3424,-800,-16248,-385,349,-128
P,1,450,720,749,533,2617,1,0,1,1,1,1,3268,-816,-16048,-514,-451,-85
P,1,387,677,651,560,2616,1,0,1,1,1,1,3016,-448,-16468,-922,-466,41
P,1,545,546,721,528,2633,1,0,1,1,1,1,3136,-384,-16400,-885,-153,47
P,1,67,647,656,605,2550,1,0,1,1,1,1,3340,-204,-16368,-284,-112,-222
P,1,439,720,729,499,2646,1,0,1,1,1,1,3056,-236,-16156,-469,-46,95
P,1,384,704,801,531,2622,1,0,1,1,1,1,3124,-288,-15416,-67,-367,97
P,1,400,818,1535,478,2389,1,0,1,1,1,1,3012,-504,-16204,-313,-973,199
P,1,374,547,815,677,2624,1,0,1,1,1,1,2920,-580,-17240,-218,-863,642
P,1,364,807,771,400,2517,1,0,1,1,1,1,2940,-1288,-17500,-375,-254,722
P,1,417,720,747,523,2625,1,0,1,1,1,1,3204,-844,-17028,-411,22,297
P,1,381,687,743,557,2592,1,0,1,1,1,1,3060,-1076,-16880,-782,345,326
P,1,470,674,681,415,2730,1,0,1,1,1,1,3276,-772,-16028,-651,1111,-415
P,1,314,501,1077,395,2667,1,0,1,1,1,1,3496,-312,-15984,-434,609,-717
P,1,361,997,795,334,2512,1,0,1,1,1,1,3828,112,-15972,-453,47,-225
P,1,399,736,722,537,2622,1,0,1,1,1,1,3740,-392,-16284,-658,-381,363
P,1,407,640,674,511,2646,1,0,1,1,1,1,3508,-816,-16504,-674,-706,378
P,1,400,688,630,499,2621,1,0,1,1,1,1,3336,-892,-16392,-479,-458,290
P,1,501,550,950,487,2512,1,0,1,1,1,1,3236,-928,-16604,-689,164,-49
P,1,781,889,432,333,2803,1,0,1,1,1,1,3352,-344,-16484,-579,69,-186
P,1,364,677,714,528,2641,1,0,1,1,1,1,3344,-400,-16196,-715,323,43
P,1,384,663,759,534,2630,1,0,1,1,1,1,3704,-640,-16272,-758,-105,101
P,1,455,683,686,593,2674,1,0,1,1,1,1,3572,-372,-16248,-647,-272,189
P,1,208,799,837,402,2603,1,0,1,1,1,1,3432,-668,-16388,-641,-201,231
P,1,661,579,670,619,2627,1,0,1,1,1,1,3448,-608,-16300,-367,18,-97
