flex_pinky,flex_ring,flex_middle,flex_index,flex_thumb,touch_index,touch_middle,touch_ring,touch_pinky,touch_r,touch_u,ax,ay,az,gx,gy,gz,label,rep,session,day
1.0,0.8660229330114665,1.0,1.0,0.0,1.0,1.0,1.0,0.0,1.0,0.0,0.541259765625,0.0872802734375,0.0849609375,-0.02197265625,-0.020355224609375,0.016754150390625,M,0,2026-08-24_23-25-27,2026-08-25
1.0,0.8672299336149668,1.0,1.0,0.0,1.0,1.0,1.0,0.0,1.0,0.0,0.554931640625,0.09716796875,0.081298828125,-0.028411865234375,-0.02117919921875,0.013946533203125,M,0,2026-08-24_23-25-27,2026-08-25
1.0,0.8648159324079662,0.9774774774774775,1.0,0.0,1.0,1.0,1.0,0.0,1.0,0.0,0.5506591796875,0.107177734375,0.0836181640625,-0.023468017578125,-0.025146484375,0.01507568359375,M,0,2026-08-24_23-25-27,2026-08-25
1.0,0.8684369342184671,0.9797297297297297,1.0,0.0,1.0,1.0,1.0,0.0,1.0,0.0,0.5472412109375,0.0980224609375,0.0775146484375,-0.012725830078125,-0.0250244140625,0.01409912109375,M,0,2026-08-24_23-25-27,2026-08-25
1.0,0.8877489438744719,0.9774774774774775,1.0,0.0,1.0,1.0,1.0,0.0,1.0,0.0,0.5521240234375,0.094970703125,0.0762939453125,-0.003143310546875,-0.018707275390625,0.012939453125,M,0,2026-08-24_23-25-27,2026-08-25
1.0,0.8901629450814725,1.0,1.0,0.0,1.0,1.0,1.0,0.0,1.0,0.0,0.5557861328125,0.0928955078125,0.0814208984375,-0.006378173828125,-0.02008056640625,0.010498046875,M,0,2026-08-24_23-25-27,2026-08-25
1.0,0.8648159324079662,1.0,1.0,0.0,1.0,1.0,1.0,0.0,1.0,0.0,0.556396484375,0.092529296875,0.06884765625,-0.012451171875,-0.0216064453125,0.00897216796875,M,0,2026-08-24_23-25-27,2026-08-25
1.0,0.8648159324079662,1.0,1.0,0.0,1.0,1.0,1.0,0.0,1.0,0.0,0.5550537109375,0.09423828125,0.0682373046875,-0.016021728515625,-0.02215576171875,0.00579833984375,M,0,2026-08-24_23-25-27,2026-08-25
1.0,0.8648159324079662,1.0,1.0,0.0,1.0,1.0,1.0,0.0,1.0,0.0,0.556640625,0.10107421875,0.0692138671875,-0.015594482421875,-0.022735595703125,0.00225830078125,M,0,2026-08-24_23-25-27,2026-08-25
1.0,0.8696439348219674,1.0,1.0,0.0,1.0,1.0,1.0,0.0,1.0,0.0,0.5567626953125,0.1075439453125,0.0662841796875,-0.015289306640625,-0.015350341796875,-0.000701904296875,M,0,2026-08-24_23-25-27,2026-08-25
1.0,0.8708509354254678,1.0,1.0,0.0,1.0,1.0,1.0,0.0,1.0,0.0,0.5599365234375,0.107421875,0.070556640625,-0.008636474609375,-0.0201416015625,0.000885009765625,M,0,2026-08-24_23-25-27,2026-08-25
1.0,0.8636089318044659,1.0,1.0,0.0,1.0,1.0,1.0,0.0,1.0,0.0,0.55126953125,0.105712890625,0.063232421875,-0.009613037109375,-0.016021728515625,-0.0047607421875,M,0,2026-08-24_23-25-27,2026-08-25
1.0,0.8660229330114665,1.0,1.0,0.0,1.0,1.0,1.0,0.0,1.0,0.0,0.5504150390625,0.112548828125,0.06005859375,-0.009490966796875,-0.00762939453125,-0.009552001953125,M,0,2026-08-24_23-25-27,2026-08-25
1.0,0.8672299336149668,1.0,1.0,0.0,1.0,1.0,1.0,0.0,1.0,0.0,0.54833984375,0.117919921875,0.0655517578125,-0.017852783203125,-0.0054931640625,-0.00872802734375,M,0,2026-08-24_23-25-27,2026-08-25
1.0,0.8756789378394689,1.0,1.0,0.0,1.0,1.0,1.0,0.0,1.0,0.0,0.550537109375,0.1224365234375,0.0589599609375,-0.018798828125,-0.008636474609375,-0.00408935546875,M,0,2026-08-24_23-25-27,2026-08-25
1.0,0.8829209414604707,1.0,1.0,0.0,1.0,1.0,1.0,0.0,1.0,0.0,0.54833984375,0.12255859375,0.0604248046875,-0.01300048828125,-0.01422119140625,0.000762939453125,M,0,2026-08-24_23-25-27,2026-08-25
1.0,0.8913699456849729,1.0,1.0,0.0,1.0,1.0,1.0,0.0,1.0,0.0,0.539306640625,0.109130859375,0.0506591796875,-0.011749267578125,-0.001068115234375,0.000762939453125,M,0,2026-08-24_23-25-27,2026-08-25
1.0,0.896197948098974,1.0,1.0,0.0,1.0,1.0,1.0,0.0,1.0,0.0,0.538818359375,0.113525390625,0.05712890625,-0.016082763671875,0.00347900390625,0.001007080078125,M,0,2026-08-24_23-25-27,2026-08-25
1.0,0.8865419432709717,1.0,1.0,0.0,1.0,1.0,1.0,0.0,1.0,0.0,0.5423583984375,0.1072998046875,0.0638427734375,-0.015960693359375,-0.0009765625,0.00567626953125,M,0,2026-08-24_23-25-27,2026-08-25
1.0,0.8853349426674714,1.0,1.0,0.0,1.0,1.0,1.0,0.0,1.0,0.0,0.5384521484375,0.109619140625,0.0648193359375,-0.017822265625,-0.005035400390625,0.007354736328125,M,0,2026-08-24_23-25-27,2026-08-25
1.0,0.8865419432709717,1.0,1.0,0.0,1.0,1.0,1.0,0.0,1.0,0.0,0.531982421875,0.100341796875,0.0662841796875,-0.016632080078125,-0.00469970703125,0.006072998046875,M,0,2026-08-24_23-25-27,2026-08-25
1.0,0.884127942063971,1.0,1.0,0.0,1.0,1.0,1.0,0.0,1.0,0.0,0.535888671875,0.1058349609375,0.0712890625,-0.0198974609375,0.00128173828125,0.00457763671875,M,0,2026-08-24_23-25-27,2026-08-25
1.0,0.8865419432709717,1.0,1.0,0.0,1.0,1.0,1.0,0.0,1.0,0.0,0.5423583984375,0.1072998046875,0.0703125,-0.020355224609375,-0.000274658203125,0.0067138671875,M,0,2026-08-24_23-25-27,2026-08-25
1.0,0.8901629450814725,1.0,1.0,0.0,1.0,1.0,1.0,0.0,1.0,0.0,0.54345703125,0.1048583984375,0.07177734375,-0.012939453125,0.001251220703125,0.005157470703125,M,0,2026-08-24_23-25-27,2026-08-25
1.0,0.8768859384429692,0.963963963963964,1.0,0.0,1.0,1.0,1.0,0.0,1.0,0.0,0.54443359375,0.11181640625,0.0772705078125,-0.013031005859375,-0.004058837890625,0.005462646484375,M,0,2026-08-24_23-25-27,2026-08-25
1.0,0.8732649366324683,0.9752252252252253,1.0,0.0,1.0,1.0,1.0,0.0,1.0,0.0,0.5411376953125,0.11474609375,0.07958984375,-0.012298583984375,-0.001861572265625,0.012359619140625,M,0,2026-08-24_23-25-27,2026-08-25
1.0,0.872057936028968,0.9459459459459459,1.0,0.0,1.0,1.0,1.0,0.0,1.0,0.0,0.548095703125,0.1015625,0.0787353515625,-0.01678466796875,0.001495361328125,0.013275146484375,M,0,2026-08-24_23-25-27,2026-08-25
1.0,0.8901629450814725,1.0,1.0,0.0,1.0,1.0,1.0,0.0,1.0,0.0,0.553955078125,0.1038818359375,0.078369140625,-0.015716552734375,-0.003082275390625,0.0113525390625,M,0,2026-08-24_23-25-27,2026-08-25
1.0,0.8648159324079662,1.0,1.0,0.0,1.0,1.0,1.0,0.0,1.0,0.0,0.5489501953125,0.096435546875,0.0657958984375,-0.00482177734375,-0.008544921875,0.01239013671875,M,0,2026-08-24_23-25-27,2026-08-25
1.0,0.8636089318044659,1.0,1.0,0.0,1.0,1.0,1.0,0.0,1.0,0.0,0.5467529296875,0.1026611328125,0.078369140625,-0.011810302734375,-0.00787353515625,0.008209228515625,M,0,2026-08-24_23-25-27,2026-08-25
1.0,0.8624019312009656,0.954954954954955,1.0,0.0,1.0,1.0,1.0,0.0,1.0,0.0,0.54345703125,0.1011962890625,0.079345703125,-0.0135498046875,-0.006805419921875,0.0107421875,M,0,2026-08-24_23-25-27,2026-08-25
1.0,0.8624019312009656,0.9617117117117117,1.0,0.0,1.0,1.0,1.0,0.0,1.0,0.0,0.5491943359375,0.104248046875,0.0767822265625,-0.01678466796875,-0.00830078125,0.0103759765625,M,0,2026-08-24_23-25-27,2026-08-25
1.0,0.8611949305974653,0.972972972972973,1.0,0.0,1.0,1.0,1.0,0.0,1.0,0.0,0.5491943359375,0.099365234375,0.0830078125,-0.003570556640625,-0.012786865234375,0.010040283203125,M,0,2026-08-24_23-25-27,2026-08-25
1.0,0.859987929993965,1.0,1.0,0.0,1.0,1.0,1.0,0.0,1.0,0.0,0.5450439453125,0.0914306640625,0.0714111328125,0.0103759765625,-0.010650634765625,0.008880615234375,M,0,2026-08-24_23-25-27,2026-08-25
1.0,0.8684369342184671,1.0,1.0,0.0,1.0,1.0,1.0,0.0,1.0,0.0,0.5474853515625,0.095458984375,0.066162109375,-0.00286865234375,-0.009857177734375,0.001068115234375,M,0,2026-08-24_23-25-27,2026-08-25
1.0,0.8648159324079662,1.0,1.0,0.0,1.0,1.0,1.0,0.0,1.0,0.0,0.541015625,0.1104736328125,0.0679931640625,-0.014495849609375,-0.014556884765625,0.00457763671875,M,0,2026-08-24_23-25-27,2026-08-25
1.0,0.8660229330114665,1.0,1.0,0.0,1.0,1.0,1.0,0.0,1.0,0.0,0.5465087890625,0.0965576171875,0.074951171875,-0.018951416015625,-0.01123046875,0.000823974609375,M,0,2026-08-24_23-25-27,2026-08-25
1.0,0.8889559444779722,1.0,1.0,0.0,1.0,1.0,1.0,0.0,1.0,0.0,0.54931640625,0.115478515625,0.07177734375,-0.009490966796875,-0.010040283203125,0.00372314453125,M,0,2026-08-24_23-25-27,2026-08-25
1.0,0.8768859384429692,0.9662162162162162,1.0,0.0,1.0,1.0,1.0,0.0,1.0,0.0,0.5428466796875,0.1016845703125,0.0643310546875,0.00433349609375,-0.0155029296875,0.009918212890625,M,0,2026-08-24_23-25-27,2026-08-25
1.0,0.8829209414604707,0.9662162162162162,1.0,0.0,1.0,1.0,1.0,0.0,1.0,0.0,0.54296875,0.111572265625,0.0701904296875,0.003204345703125,-0.01068115234375,0.009185791015625,M,0,2026-08-24_23-25-27,2026-08-25
1.0,1.0,1.0,1.0,0.050955414012738856,1.0,1.0,1.0,0.0,1.0,0.0,0.5478515625,0.1348876953125,0.0631103515625,0.01300048828125,0.011566162109375,0.0194091796875,M,1,2026-08-24_23-25-27,2026-08-25
1.0,1.0,1.0,1.0,0.0,1.0,1.0,1.0,0.0,1.0,0.0,0.5469970703125,0.10888671875,0.0296630859375,0.0277099609375,0.007537841796875,0.019927978515625,M,1,2026-08-24_23-25-27,2026-08-25
1.0,1.0,1.0,1.0,0.0,1.0,1.0,1.0,0.0,1.0,0.0,0.5428466796875,0.101806640625,0.037841796875,0.001434326171875,0.014678955078125,0.008758544921875,M,1,2026-08-24_23-25-27,2026-08-25
1.0,0.9625829812914907,1.0,1.0,0.050955414012738856,1.0,1.0,1.0,0.0,1.0,0.0,0.534423828125,0.1226806640625,0.031005859375,-0.01336669921875,0.0245361328125,0.008056640625,M,1,2026-08-24_23-25-27,2026-08-25
1.0,0.9915509957754979,1.0,1.0,0.14012738853503184,1.0,1.0,1.0,0.0,1.0,0.0,0.5450439453125,0.117431640625,0.0687255859375,-0.021087646484375,0.02386474609375,0.016448974609375,M,1,2026-08-24_23-25-27,2026-08-25
1.0,1.0,1.0,1.0,0.0,1.0,1.0,1.0,0.0,1.0,0.0,0.5546875,0.11865234375,0.053955078125,-0.02728271484375,0.001678466796875,0.0157470703125,M,1,2026-08-24_23-25-27,2026-08-25
1.0,1.0,1.0,1.0,0.0,1.0,1.0,1.0,0.0,1.0,0.0,0.5516357421875,0.1248779296875,0.0482177734375,-0.0257568359375,-0.006103515625,0.010955810546875,M,1,2026-08-24_23-25-27,2026-08-25
1.0,1.0,1.0,1.0,0.0,1.0,1.0,1.0,0.0,1.0,0.0,0.54736328125,0.118896484375,0.0460205078125,-0.0185546875,0.000274658203125,0.00921630859375,M,1,2026-08-24_23-25-27,2026-08-25
1.0,0.9480989740494871,1.0,1.0,0.0,1.0,1.0,1.0,0.0,1.0,0.0,0.542724609375,0.126708984375,0.055908203125,-0.011474609375,0.00225830078125,0.010772705078125,M,1,2026-08-24_23-25-27,2026-08-25
1.0,0.996378998189499,1.0,1.0,0.025477707006369428,1.0,1.0,1.0,0.0,1.0,0.0,0.546630859375,0.111083984375,0.0528564453125,-0.014984130859375,0.011077880859375,0.010162353515625,M,1,2026-08-24_23-25-27,2026-08-25
1.0,0.9480989740494871,1.0,1.0,0.07643312101910828,1.0,1.0,1.0,0.0,1.0,0.0,0.5489501953125,0.1182861328125,0.0574951171875,-0.018524169921875,-0.003631591796875,0.009613037109375,M,1,2026-08-24_23-25-27,2026-08-25
1.0,0.9420639710319855,1.0,1.0,0.06369426751592357,1.0,1.0,1.0,0.0,1.0,0.0,0.54736328125,0.1138916015625,0.0528564453125,-0.013214111328125,-0.0140380859375,0.012603759765625,M,1,2026-08-24_23-25-27,2026-08-25
1.0,1.0,1.0,1.0,0.0,1.0,1.0,1.0,0.0,1.0,0.0,0.541259765625,0.115478515625,0.04833984375,-0.01080322265625,-0.0098876953125,0.011138916015625,M,1,2026-08-24_23-25-27,2026-08-25
1.0,1.0,1.0,1.0,0.0,1.0,1.0,1.0,0.0,1.0,0.0,0.54443359375,0.107666015625,0.046142578125,-0.008758544921875,0.0013427734375,0.008880615234375,M,1,2026-08-24_23-25-27,2026-08-25
1.0,1.0,1.0,1.0,0.0,1.0,1.0,1.0,0.0,1.0,0.0,0.5557861328125,0.120849609375,0.0440673828125,-0.01666259765625,-0.005615234375,0.0091552734375,M,1,2026-08-24_23-25-27,2026-08-25
1.0,1.0,1.0,1.0,0.025477707006369428,1.0,1.0,1.0,0.0,1.0,0.0,0.54736328125,0.10205078125,0.0435791015625,-0.01116943359375,-0.009002685546875,0.00494384765625,M,1,2026-08-24_23-25-27,2026-08-25
1.0,1.0,1.0,1.0,0.0,1.0,1.0,1.0,0.0,1.0,0.0,0.5498046875,0.113525390625,0.047119140625,-0.029083251953125,-0.015960693359375,-0.002166748046875,M,1,2026-08-24_23-25-27,2026-08-25
1.0,1.0,1.0,1.0,0.0,1.0,1.0,1.0,0.0,1.0,0.0,0.5428466796875,0.1219482421875,0.040771484375,-0.01318359375,-0.00677490234375,0.001068115234375,M,1,2026-08-24_23-25-27,2026-08-25
1.0,0.963789981894991,0.990990990990991,1.0,0.08917197452229299,1.0,1.0,1.0,0.0,1.0,0.0,0.5423583984375,0.11474609375,0.04248046875,-0.0120849609375,-0.008270263671875,0.001983642578125,M,1,2026-08-24_23-25-27,2026-08-25
1.0,0.9927579963789982,1.0,1.0,0.11464968152866242,1.0,1.0,1.0,0.0,1.0,0.0,0.5511474609375,0.1248779296875,0.0439453125,-0.01263427734375,-0.00579833984375,0.00341796875,M,1,2026-08-24_23-25-27,2026-08-25
1.0,0.9408569704284853,1.0,1.0,0.0,1.0,1.0,1.0,0.0,1.0,0.0,0.5496826171875,0.10595703125,0.0523681640625,-0.012786865234375,-0.015472412109375,0.00323486328125,M,1,2026-08-24_23-25-27,2026-08-25
1.0,0.9420639710319855,0.990990990990991,1.0,0.0,1.0,1.0,1.0,0.0,1.0,0.0,0.5406494140625,0.123291015625,0.0452880859375,-0.018096923828125,-0.015625,0.000396728515625,M,1,2026-08-24_23-25-27,2026-08-25
1.0,0.936028968014484,1.0,1.0,0.0,1.0,1.0,1.0,0.0,1.0,0.0,0.5400390625,0.11474609375,0.0303955078125,-0.0174560546875,0.000335693359375,6.103515625e-05,M,1,2026-08-24_23-25-27,2026-08-25
1.0,0.9336149668074833,0.9842342342342343,1.0,0.0,1.0,1.0,1.0,0.0,1.0,0.0,0.549072265625,0.1219482421875,0.0491943359375,-0.025909423828125,-0.003173828125,0.000152587890625,M,1,2026-08-24_23-25-27,2026-08-25
1.0,0.9384429692214846,0.9819819819819819,1.0,0.0,1.0,1.0,1.0,0.0,1.0,0.0,0.551025390625,0.121337890625,0.0501708984375,-0.0206298828125,-0.0052490234375,0.004974365234375,M,1,2026-08-24_23-25-27,2026-08-25
1.0,0.9384429692214846,0.9774774774774775,1.0,0.012738853503184714,1.0,1.0,1.0,0.0,1.0,0.0,0.5426025390625,0.11279296875,0.0526123046875,-0.028533935546875,-0.022918701171875,0.00360107421875,M,1,2026-08-24_23-25-27,2026-08-25
1.0,0.9275799637899819,0.9819819819819819,1.0,0.0,1.0,1.0,1.0,0.0,1.0,0.0,0.532470703125,0.116455078125,0.0380859375,-0.03192138671875,-0.00555419921875,-0.0003662109375,M,1,2026-08-24_23-25-27,2026-08-25
1.0,0.996378998189499,0.9842342342342343,1.0,0.0,1.0,1.0,1.0,0.0,1.0,0.0,0.544677734375,0.110107421875,0.04541015625,-0.03143310546875,-0.000762939453125,-0.001495361328125,M,1,2026-08-24_23-25-27,2026-08-25
1.0,0.9867229933614967,0.9752252252252253,1.0,0.0,1.0,1.0,1.0,0.0,1.0,0.0,0.552490234375,0.1112060546875,0.05517578125,-0.0543212890625,-0.002044677734375,-0.008026123046875,M,1,2026-08-24_23-25-27,2026-08-25
1.0,1.0,0.9932432432432432,1.0,0.03821656050955414,1.0,1.0,1.0,0.0,1.0,0.0,0.5418701171875,0.0955810546875,0.0516357421875,-0.09735107421875,-0.00604248046875,-0.0244140625,M,1,2026-08-24_23-25-27,2026-08-25
1.0,1.0,0.9752252252252253,1.0,0.0,1.0,1.0,1.0,0.0,1.0,0.0,0.538330078125,0.12451171875,0.052978515625,-0.124603271484375,-0.0135498046875,-0.028717041015625,M,1,2026-08-24_23-25-27,2026-08-25
1.0,1.0,0.9774774774774775,1.0,0.03821656050955414,1.0,1.0,1.0,0.0,1.0,0.0,0.5438232421875,0.1278076171875,0.0489501953125,-0.10638427734375,-0.009368896484375,-0.021514892578125,M,1,2026-08-24_23-25-27,2026-08-25
1.0,1.0,0.9819819819819819,1.0,0.0,1.0,1.0,1.0,0.0,1.0,0.0,0.5528564453125,0.126953125,0.072021484375,-0.09442138671875,-0.009613037109375,-0.019927978515625,M,1,2026-08-24_23-25-27,2026-08-25
1.0,0.9589619794809897,0.9819819819819819,1.0,0.0,1.0,1.0,1.0,0.0,1.0,0.0,0.542724609375,0.1431884765625,0.054931640625,-0.05877685546875,-0.019866943359375,-0.011688232421875,M,1,2026-08-24_23-25-27,2026-08-25
1.0,0.9975859987929994,0.9752252252252253,1.0,0.08917197452229299,1.0,1.0,1.0,0.0,1.0,0.0,0.535400390625,0.140625,0.0357666015625,-0.023162841796875,-0.011810302734375,-0.00384521484375,M,1,2026-08-24_23-25-27,2026-08-25
1.0,0.9263729631864815,0.9774774774774775,1.0,0.0,1.0,1.0,1.0,0.0,1.0,0.0,0.54296875,0.1138916015625,0.0445556640625,-0.01904296875,0.004302978515625,-0.001739501953125,M,1,2026-08-24_23-25-27,2026-08-25
1.0,1.0,0.9774774774774775,1.0,0.012738853503184714,1.0,1.0,1.0,0.0,1.0,0.0,0.546630859375,0.1246337890625,0.041259765625,-0.049896240234375,0.0023193359375,-0.003265380859375,M,1,2026-08-24_23-25-27,2026-08-25
1.0,1.0,0.954954954954955,1.0,0.0,1.0,1.0,1.0,0.0,1.0,0.0,0.5450439453125,0.1419677734375,0.051025390625,-0.0438232421875,-0.016448974609375,0.008087158203125,M,1,2026-08-24_23-25-27,2026-08-25
1.0,0.9263729631864815,0.9662162162162162,1.0,0.0,1.0,1.0,1.0,0.0,1.0,0.0,0.5438232421875,0.117919921875,0.042724609375,-0.029876708984375,-0.0201416015625,0.010894775390625,M,1,2026-08-24_23-25-27,2026-08-25
1.0,0.9420639710319855,0.9752252252252253,1.0,0.012738853503184714,1.0,1.0,1.0,0.0,1.0,0.0,0.54345703125,0.10986328125,0.046142578125,-0.039154052734375,-0.010009765625,-0.00244140625,M,1,2026-08-24_23-25-27,2026-08-25
1.0,1.0,0.9774774774774775,1.0,0.0,1.0,1.0,1.0,0.0,1.0,0.0,0.55029296875,0.13427734375,0.0555419921875,-0.0035400390625,0.007843017578125,0.00146484375,M,2,2026-08-24_23-25-27,2026-08-25
1.0,0.8974049487024743,0.9211711711711712,1.0,0.06369426751592357,1.0,1.0,1.0,0.0,1.0,0.0,0.5526123046875,0.13232421875,0.0543212890625,-0.006744384765625,0.002838134765625,0.00738525390625,M,2,2026-08-24_23-25-27,2026-08-25
1.0,0.872057936028968,0.9617117117117117,1.0,0.06369426751592357,1.0,1.0,1.0,0.0,1.0,0.0,0.5458984375,0.128173828125,0.056884765625,-0.008819580078125,-0.00531005859375,0.01312255859375,M,2,2026-08-24_23-25-27,2026-08-25
1.0,0.9480989740494871,0.972972972972973,1.0,0.06369426751592357,1.0,1.0,1.0,0.0,1.0,0.0,0.5386962890625,0.122802734375,0.05712890625,-0.00482177734375,-0.00653076171875,0.015411376953125,M,2,2026-08-24_23-25-27,2026-08-25
1.0,0.8817139408569704,0.9527027027027027,1.0,0.07643312101910828,1.0,1.0,1.0,0.0,1.0,0.0,0.5386962890625,0.0966796875,0.047119140625,0.00616455078125,-0.0018310546875,0.004425048828125,M,2,2026-08-24_23-25-27,2026-08-25
1.0,0.9456849728424864,0.9572072072072072,0.9408602150537635,0.0,1.0,1.0,1.0,0.0,1.0,0.0,0.5458984375,0.1109619140625,0.047607421875,-0.003692626953125,-0.001495361328125,0.002777099609375,M,2,2026-08-24_23-25-27,2026-08-25
1.0,0.8974049487024743,0.9481981981981982,1.0,0.17834394904458598,1.0,1.0,1.0,0.0,1.0,0.0,0.5419921875,0.108642578125,0.0474853515625,0.000152587890625,-0.007354736328125,0.00372314453125,M,2,2026-08-24_23-25-27,2026-08-25
1.0,0.9034399517199758,0.9324324324324325,1.0,0.012738853503184714,1.0,1.0,1.0,0.0,1.0,0.0,0.5391845703125,0.1082763671875,0.061767578125,0.011016845703125,-0.017913818359375,0.000396728515625,M,2,2026-08-24_23-25-27,2026-08-25
1.0,0.9299939649969825,0.9459459459459459,1.0,0.11464968152866242,1.0,1.0,1.0,0.0,1.0,0.0,0.534423828125,0.09423828125,0.0557861328125,0.00347900390625,-0.006256103515625,-0.012969970703125,M,2,2026-08-24_23-25-27,2026-08-25
1.0,0.9372359686179843,0.9707207207207207,1.0,0.03821656050955414,1.0,1.0,1.0,0.0,1.0,0.0,0.537109375,0.1275634765625,0.0504150390625,-0.014678955078125,-0.00579833984375,-0.01654052734375,M,2,2026-08-24_23-25-27,2026-08-25
1.0,0.9143029571514786,0.9684684684684685,1.0,0.11464968152866242,1.0,1.0,1.0,0.0,1.0,0.0,0.532470703125,0.1419677734375,0.0545654296875,-0.015045166015625,-0.021575927734375,-0.003173828125,M,2,2026-08-24_23-25-27,2026-08-25
1.0,0.9480989740494871,0.9481981981981982,0.9946236559139785,0.0,1.0,1.0,1.0,0.0,1.0,0.0,0.5413818359375,0.1304931640625,0.0435791015625,-0.00421142578125,-0.02069091796875,-6.103515625e-05,M,2,2026-08-24_23-25-27,2026-08-25
1.0,0.9263729631864815,0.9662162162162162,0.9354838709677419,0.03821656050955414,1.0,1.0,1.0,0.0,1.0,0.0,0.5352783203125,0.1295166015625,0.0499267578125,0.004302978515625,-0.0140380859375,0.000152587890625,M,2,2026-08-24_23-25-27,2026-08-25
1.0,0.8817139408569704,0.9527027027027027,1.0,0.17834394904458598,1.0,1.0,1.0,0.0,1.0,0.0,0.5330810546875,0.1212158203125,0.06689453125,-0.004669189453125,-0.0213623046875,-0.00390625,M,2,2026-08-24_23-25-27,2026-08-25
1.0,0.9420639710319855,0.9572072072072072,1.0,0.0,1.0,1.0,1.0,0.0,1.0,0.0,0.5401611328125,0.1414794921875,0.0936279296875,-0.022003173828125,-0.031890869140625,0.003662109375,M,2,2026-08-24_23-25-27,2026-08-25
1.0,0.9348219674109837,0.9527027027027027,1.0,0.1910828025477707,1.0,1.0,1.0,0.0,1.0,0.0,0.5379638671875,0.1171875,0.07080078125,-0.022369384765625,-0.043060302734375,0.007293701171875,M,2,2026-08-24_23-25-27,2026-08-25
1.0,0.936028968014484,0.9414414414414415,1.0,0.11464968152866242,1.0,1.0,1.0,0.0,1.0,0.0,0.5377197265625,0.124267578125,0.0396728515625,-0.015228271484375,-0.040374755859375,-0.002044677734375,M,2,2026-08-24_23-25-27,2026-08-25
1.0,0.9143029571514786,0.9481981981981982,1.0,0.12738853503184713,1.0,1.0,1.0,0.0,1.0,0.0,0.5380859375,0.133056640625,0.024658203125,-0.001922607421875,-0.036865234375,-0.0009765625,M,2,2026-08-24_23-25-27,2026-08-25
1.0,0.9094749547374774,0.9414414414414415,1.0,0.11464968152866242,1.0,1.0,1.0,0.0,1.0,0.0,0.5430908203125,0.1329345703125,0.0198974609375,0.000579833984375,-0.033477783203125,0.005889892578125,M,2,2026-08-24_23-25-27,2026-08-25
1.0,0.899818949909475,0.9324324324324325,1.0,0.012738853503184714,1.0,1.0,1.0,0.0,1.0,0.0,0.5477294921875,0.125732421875,0.0107421875,3.0517578125e-05,-0.03179931640625,0.013427734375,M,2,2026-08-24_23-25-27,2026-08-25
1.0,0.8853349426674714,0.954954954954955,1.0,0.12738853503184713,1.0,1.0,1.0,0.0,1.0,0.0,0.5472412109375,0.1090087890625,0.0009765625,-0.0029296875,-0.0224609375,0.00604248046875,M,2,2026-08-24_23-25-27,2026-08-25
1.0,0.8660229330114665,0.9459459459459459,1.0,0.012738853503184714,1.0,1.0,1.0,0.0,1.0,0.0,0.5501708984375,0.1307373046875,0.0042724609375,-0.0042724609375,-0.022369384765625,0.006683349609375,M,2,2026-08-24_23-25-27,2026-08-25
1.0,0.8708509354254678,0.963963963963964,1.0,0.06369426751592357,1.0,1.0,1.0,0.0,1.0,0.0,0.5496826171875,0.114990234375,0.010498046875,-0.013458251953125,-0.0107421875,0.004302978515625,M,2,2026-08-24_23-25-27,2026-08-25
1.0,0.8660229330114665,0.9436936936936937,1.0,0.012738853503184714,1.0,1.0,1.0,0.0,1.0,0.0,0.55712890625,0.1182861328125,0.014892578125,0.002655029296875,-0.004852294921875,0.0025634765625,M,2,2026-08-24_23-25-27,2026-08-25
1.0,0.8708509354254678,0.9572072072072072,1.0,0.11464968152866242,1.0,1.0,1.0,0.0,1.0,0.0,0.5545654296875,0.1278076171875,0.02001953125,-0.011932373046875,-0.002593994140625,-0.003143310546875,M,2,2026-08-24_23-25-27,2026-08-25
1.0,0.872057936028968,0.9707207207207207,1.0,0.11464968152866242,1.0,1.0,1.0,0.0,1.0,0.0,0.555908203125,0.1331787109375,0.0364990234375,-0.00311279296875,-0.0040283203125,0.00445556640625,M,2,2026-08-24_23-25-27,2026-08-25
1.0,0.872057936028968,0.9684684684684685,0.9946236559139785,0.1910828025477707,1.0,1.0,1.0,0.0,1.0,0.0,0.5576171875,0.12841796875,0.038818359375,-0.0086669921875,-0.0050048828125,-0.003387451171875,M,2,2026-08-24_23-25-27,2026-08-25
1.0,0.8684369342184671,0.9481981981981982,1.0,0.06369426751592357,1.0,1.0,1.0,0.0,1.0,0.0,0.5482177734375,0.134521484375,0.046142578125,-0.017822265625,-0.00091552734375,-0.0032958984375,M,2,2026-08-24_23-25-27,2026-08-25
1.0,0.8648159324079662,0.9436936936936937,0.989247311827957,0.0,1.0,1.0,1.0,0.0,1.0,0.0,0.5537109375,0.13916015625,0.04736328125,-0.008758544921875,-0.005584716796875,0.00140380859375,M,2,2026-08-24_23-25-27,2026-08-25
1.0,0.8817139408569704,0.9752252252252253,1.0,0.16560509554140126,1.0,1.0,1.0,0.0,1.0,0.0,0.554931640625,0.132080078125,0.0423583984375,-0.002471923828125,-0.0130615234375,0.00299072265625,M,2,2026-08-24_23-25-27,2026-08-25
1.0,0.8672299336149668,0.9572072072072072,1.0,0.11464968152866242,1.0,1.0,1.0,0.0,1.0,0.0,0.541259765625,0.1268310546875,0.03466796875,-0.000213623046875,-0.00933837890625,0.00445556640625,M,2,2026-08-24_23-25-27,2026-08-25
1.0,0.9806879903439951,0.9707207207207207,1.0,0.07643312101910828,1.0,1.0,1.0,0.0,1.0,0.0,0.5406494140625,0.121337890625,0.03515625,-0.01239013671875,-0.007843017578125,-0.002532958984375,M,2,2026-08-24_23-25-27,2026-08-25
1.0,0.8624019312009656,0.9459459459459459,0.9838709677419355,0.025477707006369428,1.0,1.0,1.0,0.0,1.0,0.0,0.5433349609375,0.1363525390625,0.023193359375,-0.014190673828125,-0.010833740234375,0.00860595703125,M,2,2026-08-24_23-25-27,2026-08-25
1.0,0.8587809293904647,0.9617117117117117,1.0,0.0,1.0,1.0,1.0,0.0,1.0,0.0,0.538818359375,0.10546875,0.024169921875,-0.007232666015625,-0.00555419921875,-0.0018310546875,M,2,2026-08-24_23-25-27,2026-08-25
1.0,0.8672299336149668,0.9662162162162162,1.0,0.11464968152866242,1.0,1.0,1.0,0.0,1.0,0.0,0.5384521484375,0.13720703125,0.025146484375,-0.012359619140625,0.005859375,-0.00299072265625,M,2,2026-08-24_23-25-27,2026-08-25
1.0,0.9613759806879904,0.9459459459459459,1.0,0.1910828025477707,1.0,1.0,1.0,0.0,1.0,0.0,0.54052734375,0.135986328125,0.03466796875,-0.005950927734375,-0.003082275390625,0.010711669921875,M,2,2026-08-24_23-25-27,2026-08-25
1.0,0.9227519613759807,0.9324324324324325,1.0,0.0,1.0,1.0,1.0,0.0,1.0,0.0,0.5396728515625,0.11767578125,0.0296630859375,0.005828857421875,-0.0069580078125,0.004119873046875,M,2,2026-08-24_23-25-27,2026-08-25
1.0,0.8672299336149668,0.9527027027027027,1.0,0.07643312101910828,1.0,1.0,1.0,0.0,1.0,0.0,0.5469970703125,0.1297607421875,0.0374755859375,-0.01959228515625,0.00482177734375,0.00018310546875,M,2,2026-08-24_23-25-27,2026-08-25
1.0,0.8660229330114665,0.9436936936936937,1.0,0.08917197452229299,1.0,1.0,1.0,0.0,1.0,0.0,0.5379638671875,0.1373291015625,0.037109375,-0.011505126953125,-0.0123291015625,0.015289306640625,M,2,2026-08-24_23-25-27,2026-08-25
1.0,0.8648159324079662,0.9211711711711712,0.978494623655914,0.08917197452229299,1.0,1.0,1.0,0.0,1.0,0.0,0.54150390625,0.15234375,0.0469970703125,0.004913330078125,-0.01104736328125,0.01739501953125,M,2,2026-08-24_23-25-27,2026-08-25
1.0,0.9203379601689801,1.0,1.0,0.14012738853503184,1.0,1.0,1.0,0.0,1.0,0.0,0.5089111328125,0.1566162109375,0.2021484375,-0.0133056640625,-0.01806640625,-0.0037841796875,M,3,2026-08-24_23-25-27,2026-08-25
1.0,0.9143029571514786,1.0,1.0,0.03821656050955414,1.0,1.0,1.0,0.0,1.0,0.0,0.5048828125,0.1669921875,0.187255859375,-0.006683349609375,-0.01953125,0.002899169921875,M,3,2026-08-24_23-25-27,2026-08-25
1.0,0.9215449607724804,1.0,1.0,0.16560509554140126,1.0,1.0,1.0,0.0,1.0,0.0,0.505126953125,0.1529541015625,0.1925048828125,-0.00579833984375,-0.013458251953125,-0.001007080078125,M,3,2026-08-24_23-25-27,2026-08-25
1.0,0.9227519613759807,1.0,1.0,0.12738853503184713,1.0,1.0,1.0,0.0,1.0,0.0,0.50634765625,0.180908203125,0.1878662109375,0.0015869140625,-0.010528564453125,0.007843017578125,M,3,2026-08-24_23-25-27,2026-08-25
1.0,0.9155099577549789,1.0,1.0,0.11464968152866242,1.0,1.0,1.0,0.0,1.0,0.0,0.5064697265625,0.1285400390625,0.1783447265625,0.00701904296875,-0.011993408203125,0.004241943359375,M,3,2026-08-24_23-25-27,2026-08-25
1.0,0.9191309595654797,1.0,1.0,0.14012738853503184,1.0,1.0,1.0,0.0,1.0,0.0,0.4996337890625,0.1612548828125,0.180419921875,-0.024566650390625,-0.017578125,0.006195068359375,M,3,2026-08-24_23-25-27,2026-08-25
1.0,0.9167169583584792,0.9977477477477478,1.0,0.1910828025477707,1.0,1.0,1.0,0.0,1.0,0.0,0.516357421875,0.1483154296875,0.1783447265625,0.002044677734375,-0.0098876953125,0.023468017578125,M,3,2026-08-24_23-25-27,2026-08-25
1.0,0.9191309595654797,1.0,1.0,0.0,1.0,1.0,1.0,0.0,1.0,0.0,0.5081787109375,0.1343994140625,0.191650390625,-0.026641845703125,-0.019317626953125,-0.004119873046875,M,3,2026-08-24_23-25-27,2026-08-25
1.0,0.9046469523234761,0.9774774774774775,1.0,0.08917197452229299,1.0,1.0,1.0,0.0,1.0,0.0,0.50341796875,0.1832275390625,0.188720703125,-0.000213623046875,-0.014404296875,0.012176513671875,M,3,2026-08-24_23-25-27,2026-08-25
1.0,0.9094749547374774,1.0,1.0,0.06369426751592357,1.0,1.0,1.0,0.0,1.0,0.0,0.5174560546875,0.13623046875,0.1796875,0.02288818359375,-0.014923095703125,0.012054443359375,M,3,2026-08-24_23-25-27,2026-08-25
1.0,0.9130959565479783,0.9842342342342343,1.0,0.03821656050955414,1.0,1.0,1.0,0.0,1.0,0.0,0.50244140625,0.14697265625,0.18896484375,-0.007049560546875,-0.02490234375,-0.003448486328125,M,3,2026-08-24_23-25-27,2026-08-25
1.0,0.9070609535304768,0.9752252252252253,1.0,0.0,1.0,1.0,1.0,0.0,1.0,0.0,0.4991455078125,0.1568603515625,0.1708984375,0.008941650390625,-0.00982666015625,0.01092529296875,M,3,2026-08-24_23-25-27,2026-08-25
1.0,0.9384429692214846,0.9887387387387387,1.0,0.12738853503184713,1.0,1.0,1.0,0.0,1.0,0.0,0.5096435546875,0.1385498046875,0.169677734375,-0.00048828125,-0.01617431640625,0.00164794921875,M,3,2026-08-24_23-25-27,2026-08-25
1.0,1.0,0.990990990990991,1.0,0.15286624203821655,1.0,1.0,1.0,0.0,1.0,0.0,0.504150390625,0.1661376953125,0.1810302734375,0.006103515625,-0.01507568359375,0.008392333984375,M,3,2026-08-24_23-25-27,2026-08-25
1.0,1.0,1.0,1.0,0.11464968152866242,1.0,1.0,1.0,0.0,1.0,0.0,0.5062255859375,0.1395263671875,0.1614990234375,0.02471923828125,0.000579833984375,0.007659912109375,M,3,2026-08-24_23-25-27,2026-08-25
1.0,1.0,0.9707207207207207,1.0,0.14012738853503184,1.0,1.0,1.0,0.0,1.0,0.0,0.521728515625,0.1363525390625,0.1998291015625,-0.015777587890625,-0.012939453125,-0.00787353515625,M,3,2026-08-24_23-25-27,2026-08-25
1.0,1.0,0.9977477477477478,1.0,0.06369426751592357,1.0,1.0,1.0,0.0,1.0,0.0,0.509033203125,0.167724609375,0.1845703125,-0.006378173828125,-0.020538330078125,0.014007568359375,M,3,2026-08-24_23-25-27,2026-08-25
1.0,1.0,0.9842342342342343,1.0,0.06369426751592357,1.0,1.0,1.0,0.0,1.0,0.0,0.505615234375,0.15625,0.185791015625,0.004119873046875,-0.01422119140625,0.01605224609375,M,3,2026-08-24_23-25-27,2026-08-25
1.0,1.0,0.9954954954954955,1.0,0.11464968152866242,1.0,1.0,1.0,0.0,1.0,0.0,0.519287109375,0.15771484375,0.20263671875,0.012451171875,-0.02081298828125,0.01513671875,M,3,2026-08-24_23-25-27,2026-08-25
1.0,1.0,1.0,1.0,0.24203821656050956,1.0,1.0,1.0,0.0,1.0,0.0,0.4971923828125,0.1578369140625,0.186767578125,0.018768310546875,-0.03350830078125,0.0189208984375,M,3,2026-08-24_23-25-27,2026-08-25
1.0,1.0,0.9887387387387387,1.0,0.06369426751592357,1.0,1.0,1.0,0.0,1.0,0.0,0.501220703125,0.1568603515625,0.1788330078125,0.02850341796875,-0.0150146484375,0.0186767578125,M,3,2026-08-24_23-25-27,2026-08-25
1.0,1.0,0.9977477477477478,1.0,0.12738853503184713,1.0,1.0,1.0,0.0,1.0,0.0,0.5068359375,0.1358642578125,0.177734375,0.007904052734375,-0.018829345703125,0.010223388671875,M,3,2026-08-24_23-25-27,2026-08-25
1.0,1.0,1.0,1.0,0.22929936305732485,1.0,1.0,1.0,0.0,1.0,0.0,0.50927734375,0.14501953125,0.1702880859375,-0.013336181640625,-0.011474609375,0.005126953125,M,3,2026-08-24_23-25-27,2026-08-25
1.0,1.0,0.9887387387387387,1.0,0.14012738853503184,1.0,1.0,1.0,0.0,1.0,0.0,0.5145263671875,0.147705078125,0.1724853515625,-0.024017333984375,-0.0167236328125,0.002777099609375,M,3,2026-08-24_23-25-27,2026-08-25
1.0,1.0,0.9774774774774775,1.0,0.03821656050955414,1.0,1.0,1.0,0.0,1.0,0.0,0.506103515625,0.1517333984375,0.1766357421875,-0.025299072265625,-0.020751953125,-0.000335693359375,M,3,2026-08-24_23-25-27,2026-08-25
1.0,1.0,0.990990990990991,1.0,0.03821656050955414,1.0,1.0,1.0,0.0,1.0,0.0,0.5087890625,0.1558837890625,0.165771484375,-0.011962890625,-0.009185791015625,-6.103515625e-05,M,3,2026-08-24_23-25-27,2026-08-25
1.0,1.0,0.9842342342342343,1.0,0.14012738853503184,1.0,1.0,1.0,0.0,1.0,0.0,0.5186767578125,0.1517333984375,0.1793212890625,-0.006256103515625,-0.015106201171875,0.002227783203125,M,3,2026-08-24_23-25-27,2026-08-25
1.0,1.0,0.9774774774774775,1.0,0.03821656050955414,1.0,1.0,1.0,0.0,1.0,0.0,0.5081787109375,0.1514892578125,0.17041015625,-0.01171875,-0.01947021484375,0.004180908203125,M,3,2026-08-24_23-25-27,2026-08-25
1.0,0.9034399517199758,0.9752252252252253,1.0,0.03821656050955414,1.0,1.0,1.0,0.0,1.0,0.0,0.509765625,0.157958984375,0.1651611328125,-0.0198974609375,-0.012847900390625,0.006805419921875,M,3,2026-08-24_23-25-27,2026-08-25
1.0,0.9155099577549789,0.990990990990991,1.0,0.03821656050955414,1.0,1.0,1.0,0.0,1.0,0.0,0.5067138671875,0.155517578125,0.158935546875,-0.015838623046875,-0.010772705078125,0.006622314453125,M,3,2026-08-24_23-25-27,2026-08-25
1.0,0.9167169583584792,0.9774774774774775,1.0,0.08917197452229299,1.0,1.0,1.0,0.0,1.0,0.0,0.5162353515625,0.154296875,0.16943359375,-0.009429931640625,-0.007568359375,0.00616455078125,M,3,2026-08-24_23-25-27,2026-08-25
1.0,0.9927579963789982,0.9977477477477478,1.0,0.21656050955414013,1.0,1.0,1.0,0.0,1.0,0.0,0.5113525390625,0.14453125,0.1668701171875,-0.005218505859375,-0.006011962890625,0.00341796875,M,3,2026-08-24_23-25-27,2026-08-25
1.0,1.0,0.9774774774774775,1.0,0.03821656050955414,1.0,1.0,1.0,0.0,1.0,0.0,0.509521484375,0.1622314453125,0.1607666015625,-0.014434814453125,-0.01025390625,0.008026123046875,M,3,2026-08-24_23-25-27,2026-08-25
1.0,1.0,1.0,1.0,0.10191082802547771,1.0,1.0,1.0,0.0,1.0,0.0,0.508056640625,0.1453857421875,0.1630859375,-0.0089111328125,-0.00555419921875,0.006927490234375,M,3,2026-08-24_23-25-27,2026-08-25
1.0,0.9167169583584792,0.9572072072072072,1.0,0.11464968152866242,1.0,1.0,1.0,0.0,1.0,0.0,0.513671875,0.164306640625,0.1739501953125,-0.017608642578125,-0.002777099609375,0.004852294921875,M,3,2026-08-24_23-25-27,2026-08-25
1.0,0.996378998189499,0.9842342342342343,1.0,0.07643312101910828,1.0,1.0,1.0,0.0,1.0,0.0,0.51611328125,0.16259765625,0.166259765625,0.00311279296875,0.002838134765625,0.01544189453125,M,3,2026-08-24_23-25-27,2026-08-25
1.0,0.9553409776704889,0.9774774774774775,1.0,0.17834394904458598,1.0,1.0,1.0,0.0,1.0,0.0,0.5159912109375,0.1319580078125,0.1793212890625,-0.012603759765625,-0.01080322265625,0.000244140625,M,3,2026-08-24_23-25-27,2026-08-25
1.0,1.0,0.9797297297297297,1.0,0.20382165605095542,1.0,1.0,1.0,0.0,1.0,0.0,0.5032958984375,0.166015625,0.1695556640625,-0.018768310546875,-0.0037841796875,0.008331298828125,M,3,2026-08-24_23-25-27,2026-08-25
1.0,1.0,1.0,1.0,0.33121019108280253,1.0,1.0,1.0,0.0,1.0,0.0,0.507080078125,0.140625,0.166259765625,-0.015869140625,-0.00250244140625,0.009552001953125,M,3,2026-08-24_23-25-27,2026-08-25
1.0,1.0,0.9797297297297297,1.0,0.07643312101910828,1.0,1.0,1.0,0.0,1.0,0.0,0.51171875,0.1510009765625,0.19580078125,-0.018890380859375,-0.014556884765625,0.002716064453125,M,3,2026-08-24_23-25-27,2026-08-25
1.0,1.0,1.0,1.0,0.0,1.0,0.0,1.0,0.0,1.0,0.0,0.5391845703125,0.1640625,0.0108642578125,-0.004791259765625,-0.0108642578125,0.00592041015625,M,4,2026-08-24_23-25-27,2026-08-25
1.0,1.0,1.0,1.0,0.0,1.0,0.0,1.0,0.0,1.0,0.0,0.526611328125,0.16015625,0.002685546875,0.003997802734375,-0.0074462890625,0.004669189453125,M,4,2026-08-24_23-25-27,2026-08-25
1.0,0.9191309595654797,1.0,1.0,0.0,1.0,0.0,1.0,0.0,1.0,0.0,0.520751953125,0.1510009765625,-0.013916015625,0.002593994140625,0.0240478515625,-0.005645751953125,M,4,2026-08-24_23-25-27,2026-08-25
1.0,1.0,1.0,1.0,0.0,1.0,1.0,1.0,0.0,1.0,0.0,0.537841796875,0.157470703125,0.0078125,-0.016265869140625,0.039031982421875,-0.008941650390625,M,4,2026-08-24_23-25-27,2026-08-25
1.0,1.0,1.0,1.0,0.0,1.0,1.0,1.0,0.0,1.0,0.0,0.55419921875,0.16162109375,0.0498046875,-0.003814697265625,0.019195556640625,0.000701904296875,M,4,2026-08-24_23-25-27,2026-08-25
1.0,0.9118889559444779,1.0,1.0,0.0,1.0,1.0,1.0,0.0,1.0,0.0,0.5355224609375,0.1683349609375,0.0213623046875,-0.003875732421875,-0.012115478515625,0.00701904296875,M,4,2026-08-24_23-25-27,2026-08-25
1.0,1.0,1.0,1.0,0.0,1.0,1.0,1.0,0.0,1.0,0.0,0.5255126953125,0.162109375,0.0089111328125,0.001983642578125,0.007904052734375,-0.000701904296875,M,4,2026-08-24_23-25-27,2026-08-25
1.0,0.9203379601689801,1.0,1.0,0.0,1.0,1.0,1.0,0.0,1.0,0.0,0.521484375,0.1578369140625,-0.0013427734375,-0.00225830078125,0.031524658203125,-0.010711669921875,M,4,2026-08-24_23-25-27,2026-08-25
1.0,1.0,1.0,1.0,0.0,1.0,1.0,1.0,0.0,1.0,0.0,0.534423828125,0.1746826171875,0.0062255859375,-0.00103759765625,0.03131103515625,-0.013336181640625,M,4,2026-08-24_23-25-27,2026-08-25
1.0,0.923958961979481,1.0,1.0,0.0,1.0,1.0,1.0,0.0,1.0,0.0,0.5501708984375,0.165283203125,0.029052734375,-0.01629638671875,0.00860595703125,-0.00469970703125,M,4,2026-08-24_23-25-27,2026-08-25
1.0,0.9227519613759807,1.0,1.0,0.0,1.0,1.0,1.0,0.0,1.0,0.0,0.541748046875,0.1737060546875,0.0234375,-0.020904541015625,-0.01300048828125,0.00341796875,M,4,2026-08-24_23-25-27,2026-08-25
1.0,0.9746529873264936,1.0,1.0,0.0,1.0,1.0,1.0,0.0,1.0,0.0,0.5167236328125,0.1646728515625,0.01123046875,-0.01287841796875,-0.008270263671875,0.003997802734375,M,4,2026-08-24_23-25-27,2026-08-25
1.0,0.9372359686179843,1.0,1.0,0.0,1.0,1.0,1.0,0.0,1.0,0.0,0.5169677734375,0.1552734375,-0.0052490234375,-0.023406982421875,0.025360107421875,-0.008209228515625,M,4,2026-08-24_23-25-27,2026-08-25
1.0,0.9348219674109837,1.0,1.0,0.0,1.0,1.0,1.0,0.0,1.0,0.0,0.54541015625,0.17822265625,0.0284423828125,-0.02581787109375,0.025634765625,-0.00604248046875,M,4,2026-08-24_23-25-27,2026-08-25
1.0,0.9384429692214846,1.0,1.0,0.0,1.0,1.0,1.0,0.0,1.0,0.0,0.5419921875,0.1729736328125,0.02392578125,-0.011260986328125,-0.005096435546875,0.00433349609375,M,4,2026-08-24_23-25-27,2026-08-25
1.0,1.0,1.0,1.0,0.0,1.0,1.0,1.0,0.0,1.0,0.0,0.5330810546875,0.15625,0.0184326171875,-0.018585205078125,-0.012115478515625,0.002593994140625,M,4,2026-08-24_23-25-27,2026-08-25
1.0,1.0,1.0,1.0,0.0,1.0,1.0,1.0,0.0,1.0,0.0,0.5240478515625,0.168701171875,0.0064697265625,-0.023101806640625,0.0,-0.000244140625,M,4,2026-08-24_23-25-27,2026-08-25
1.0,1.0,1.0,1.0,0.0,1.0,1.0,1.0,0.0,1.0,0.0,0.539306640625,0.173828125,0.0147705078125,-0.02203369140625,0.00665283203125,0.004119873046875,M,4,2026-08-24_23-25-27,2026-08-25
1.0,1.0,1.0,1.0,0.0,1.0,1.0,1.0,0.0,1.0,0.0,0.544189453125,0.1668701171875,0.0345458984375,-0.023590087890625,-0.015594482421875,0.005950927734375,M,4,2026-08-24_23-25-27,2026-08-25
1.0,1.0,1.0,1.0,0.0,1.0,1.0,1.0,0.0,1.0,0.0,0.5311279296875,0.1689453125,0.0150146484375,-0.001678466796875,-0.01123046875,0.00848388671875,M,4,2026-08-24_23-25-27,2026-08-25
1.0,1.0,1.0,1.0,0.0,1.0,1.0,1.0,0.0,1.0,0.0,0.5325927734375,0.155029296875,0.010498046875,-0.005157470703125,0.00189208984375,0.000274658203125,M,4,2026-08-24_23-25-27,2026-08-25
1.0,1.0,1.0,1.0,0.0,1.0,1.0,1.0,0.0,1.0,0.0,0.530029296875,0.1600341796875,0.007080078125,-0.010101318359375,0.008697509765625,-0.003631591796875,M,4,2026-08-24_23-25-27,2026-08-25
1.0,0.9420639710319855,1.0,1.0,0.0,1.0,1.0,1.0,0.0,1.0,0.0,0.536376953125,0.1629638671875,0.0289306640625,-0.0150146484375,-0.00067138671875,0.001678466796875,M,4,2026-08-24_23-25-27,2026-08-25
1.0,1.0,1.0,1.0,0.0,1.0,1.0,1.0,0.0,1.0,0.0,0.5330810546875,0.1661376953125,0.0150146484375,-0.01458740234375,-0.006378173828125,0.005859375,M,4,2026-08-24_23-25-27,2026-08-25
1.0,1.0,1.0,1.0,0.0,1.0,1.0,1.0,0.0,1.0,0.0,0.528076171875,0.16357421875,0.020751953125,-0.019287109375,-0.00482177734375,0.0042724609375,M,4,2026-08-24_23-25-27,2026-08-25
1.0,1.0,1.0,1.0,0.0,1.0,1.0,1.0,0.0,1.0,0.0,0.5302734375,0.170166015625,0.0220947265625,-0.014404296875,0.005279541015625,0.0,M,4,2026-08-24_23-25-27,2026-08-25
1.0,1.0,1.0,1.0,0.0,1.0,1.0,1.0,0.0,1.0,0.0,0.539794921875,0.17138671875,0.0301513671875,-0.014404296875,-0.00579833984375,0.00128173828125,M,4,2026-08-24_23-25-27,2026-08-25
1.0,1.0,1.0,1.0,0.0,1.0,1.0,1.0,0.0,1.0,0.0,0.526123046875,0.17333984375,0.0128173828125,-0.0052490234375,-0.01483154296875,0.0072021484375,M,4,2026-08-24_23-25-27,2026-08-25
1.0,0.9770669885334943,1.0,1.0,0.0,1.0,1.0,1.0,0.0,1.0,0.0,0.5380859375,0.1531982421875,0.021240234375,-0.016357421875,-0.00640869140625,0.001861572265625,M,4,2026-08-24_23-25-27,2026-08-25
1.0,1.0,1.0,1.0,0.0,1.0,1.0,1.0,0.0,1.0,0.0,0.5260009765625,0.175537109375,0.0062255859375,-0.023162841796875,-0.008514404296875,0.00457763671875,M,4,2026-08-24_23-25-27,2026-08-25
1.0,1.0,0.9797297297297297,1.0,0.0,1.0,1.0,1.0,0.0,1.0,0.0,0.5345458984375,0.16552734375,0.0125732421875,-0.008819580078125,0.009033203125,0.0062255859375,M,4,2026-08-24_23-25-27,2026-08-25
1.0,1.0,1.0,1.0,0.0,1.0,1.0,1.0,0.0,1.0,0.0,0.540283203125,0.165283203125,0.02783203125,-0.028961181640625,-0.0140380859375,0.002838134765625,M,4,2026-08-24_23-25-27,2026-08-25
1.0,1.0,0.9887387387387387,1.0,0.0,1.0,1.0,1.0,0.0,1.0,0.0,0.5291748046875,0.1744384765625,0.01318359375,-0.006805419921875,0.006195068359375,0.00787353515625,M,4,2026-08-24_23-25-27,2026-08-25
1.0,1.0,1.0,1.0,0.0,1.0,1.0,1.0,0.0,1.0,0.0,0.54052734375,0.1513671875,0.0184326171875,-0.01385498046875,0.005035400390625,-0.000640869140625,M,4,2026-08-24_23-25-27,2026-08-25
1.0,0.9831019915509958,1.0,1.0,0.06369426751592357,1.0,1.0,1.0,0.0,1.0,0.0,0.530029296875,0.1785888671875,0.005615234375,-0.01129150390625,-0.013916015625,0.00347900390625,M,4,2026-08-24_23-25-27,2026-08-25
1.0,0.9939649969824985,1.0,1.0,0.0,1.0,1.0,1.0,0.0,1.0,0.0,0.5345458984375,0.15625,0.0233154296875,-0.005706787109375,-0.000518798828125,0.001953125,M,4,2026-08-24_23-25-27,2026-08-25
1.0,0.9722389861194931,1.0,1.0,0.012738853503184714,1.0,1.0,1.0,0.0,1.0,0.0,0.537841796875,0.1646728515625,0.0267333984375,-0.018310546875,-0.007568359375,-0.001617431640625,M,4,2026-08-24_23-25-27,2026-08-25
1.0,1.0,0.9977477477477478,1.0,0.0,1.0,1.0,1.0,0.0,1.0,0.0,0.5234375,0.166015625,0.020751953125,-0.010528564453125,-0.00128173828125,0.000579833984375,M,4,2026-08-24_23-25-27,2026-08-25
1.0,0.9806879903439951,1.0,1.0,0.0,1.0,1.0,1.0,0.0,1.0,0.0,0.536865234375,0.1697998046875,0.0313720703125,-0.0189208984375,-0.005889892578125,0.002288818359375,M,4,2026-08-24_23-25-27,2026-08-25
1.0,0.9806879903439951,0.9864864864864865,1.0,0.0,1.0,1.0,1.0,0.0,1.0,0.0,0.53466796875,0.170654296875,0.03662109375,-0.0103759765625,-0.010589599609375,0.00518798828125,M,4,2026-08-24_23-25-27,2026-08-25
1.0,1.0,0.9054054054054054,1.0,0.0,0.0,0.0,0.0,0.0,1.0,1.0,0.5450439453125,0.072265625,0.04248046875,-0.00592041015625,-0.008392333984375,0.002899169921875,N,0,2026-08-24_23-25-27,2026-08-25
1.0,1.0,0.8918918918918919,1.0,0.0,0.0,0.0,0.0,0.0,1.0,1.0,0.55712890625,0.09326171875,0.04638671875,-0.015472412109375,-0.005096435546875,0.0008544921875,N,0,2026-08-24_23-25-27,2026-08-25
1.0,1.0,0.9031531531531531,1.0,0.0,0.0,0.0,0.0,0.0,1.0,1.0,0.5557861328125,0.094970703125,0.040283203125,-0.012664794921875,-0.009552001953125,0.009246826171875,N,0,2026-08-24_23-25-27,2026-08-25
1.0,1.0,0.9054054054054054,1.0,0.0,0.0,0.0,0.0,0.0,1.0,1.0,0.5523681640625,0.08642578125,0.048828125,-0.009918212890625,-0.01397705078125,0.006683349609375,N,0,2026-08-24_23-25-27,2026-08-25
1.0,1.0,0.8738738738738738,1.0,0.0,0.0,0.0,0.0,0.0,1.0,1.0,0.543701171875,0.0909423828125,0.0445556640625,-0.0086669921875,-0.000640869140625,0.0003662109375,N,0,2026-08-24_23-25-27,2026-08-25
1.0,1.0,0.8918918918918919,1.0,0.0,0.0,0.0,0.0,0.0,1.0,1.0,0.5477294921875,0.0958251953125,0.0389404296875,-0.016265869140625,0.0098876953125,0.002197265625,N,0,2026-08-24_23-25-27,2026-08-25
1.0,1.0,0.8918918918918919,1.0,0.0,0.0,0.0,0.0,0.0,1.0,1.0,0.5579833984375,0.093505859375,0.04345703125,-0.02496337890625,0.00537109375,0.0054931640625,N,0,2026-08-24_23-25-27,2026-08-25
1.0,1.0,0.8783783783783784,1.0,0.0,0.0,0.0,0.0,0.0,1.0,1.0,0.56103515625,0.0899658203125,0.050048828125,-0.021484375,-0.007965087890625,0.009002685546875,N,0,2026-08-24_23-25-27,2026-08-25
1.0,1.0,0.9009009009009009,1.0,0.0,0.0,0.0,0.0,0.0,1.0,1.0,0.5469970703125,0.0909423828125,0.05126953125,-0.014190673828125,-0.00775146484375,0.009368896484375,N,0,2026-08-24_23-25-27,2026-08-25
1.0,1.0,0.8918918918918919,1.0,0.0,0.0,0.0,0.0,0.0,1.0,1.0,0.546630859375,0.083984375,0.0389404296875,-0.008575439453125,0.00506591796875,0.005859375,N,0,2026-08-24_23-25-27,2026-08-25
1.0,1.0,0.9076576576576577,1.0,0.0,0.0,0.0,0.0,0.0,1.0,1.0,0.546875,0.086181640625,0.0428466796875,-0.01812744140625,0.00689697265625,0.002685546875,N,0,2026-08-24_23-25-27,2026-08-25
1.0,1.0,0.9054054054054054,1.0,0.0,0.0,0.0,0.0,0.0,1.0,1.0,0.5565185546875,0.0888671875,0.049560546875,-0.0142822265625,0.007781982421875,0.007354736328125,N,0,2026-08-24_23-25-27,2026-08-25
1.0,1.0,0.8941441441441441,1.0,0.0,0.0,0.0,0.0,0.0,1.0,1.0,0.5565185546875,0.082275390625,0.0556640625,-0.006195068359375,-0.007965087890625,0.008026123046875,N,0,2026-08-24_23-25-27,2026-08-25
1.0,1.0,0.9009009009009009,1.0,0.0,0.0,0.0,0.0,0.0,1.0,1.0,0.5452880859375,0.083984375,0.05126953125,-0.006439208984375,-0.00921630859375,0.00360107421875,N,0,2026-08-24_23-25-27,2026-08-25
1.0,1.0,0.8918918918918919,1.0,0.0,0.0,0.0,0.0,0.0,1.0,1.0,0.551025390625,0.0880126953125,0.05712890625,-0.01361083984375,0.004638671875,0.00164794921875,N,0,2026-08-24_23-25-27,2026-08-25
1.0,1.0,0.8986486486486487,1.0,0.0,0.0,0.0,0.0,0.0,1.0,1.0,0.5604248046875,0.0987548828125,0.0655517578125,-0.022552490234375,-0.00299072265625,0.0078125,N,0,2026-08-24_23-25-27,2026-08-25
1.0,1.0,0.8963963963963963,1.0,0.0,0.0,0.0,0.0,0.0,1.0,1.0,0.5516357421875,0.0860595703125,0.0584716796875,-0.0150146484375,-0.005950927734375,0.005767822265625,N,0,2026-08-24_23-25-27,2026-08-25
1.0,1.0,0.8918918918918919,1.0,0.0,0.0,0.0,0.0,0.0,1.0,1.0,0.558349609375,0.095703125,0.0594482421875,-0.011932373046875,-0.013275146484375,0.00555419921875,N,0,2026-08-24_23-25-27,2026-08-25
1.0,1.0,0.8716216216216216,1.0,0.0,0.0,0.0,0.0,0.0,1.0,1.0,0.548095703125,0.0888671875,0.0594482421875,-0.009796142578125,-0.013153076171875,0.009246826171875,N,0,2026-08-24_23-25-27,2026-08-25
1.0,1.0,0.8851351351351351,1.0,0.0,0.0,0.0,0.0,0.0,1.0,1.0,0.5509033203125,0.0867919921875,0.0589599609375,-0.014617919921875,-0.007049560546875,0.008056640625,N,0,2026-08-24_23-25-27,2026-08-25
1.0,1.0,0.9054054054054054,1.0,0.0,0.0,0.0,0.0,0.0,1.0,1.0,0.5594482421875,0.08544921875,0.0489501953125,-0.01507568359375,-0.0057373046875,0.007720947265625,N,0,2026-08-24_23-25-27,2026-08-25
1.0,1.0,0.8828828828828829,1.0,0.0,0.0,0.0,0.0,0.0,1.0,1.0,0.5537109375,0.0850830078125,0.0443115234375,-0.023895263671875,-0.01434326171875,0.00567626953125,N,0,2026-08-24_23-25-27,2026-08-25
1.0,1.0,0.9031531531531531,1.0,0.0,0.0,0.0,0.0,0.0,1.0,1.0,0.5467529296875,0.0889892578125,0.0516357421875,-0.02099609375,-0.01202392578125,0.00653076171875,N,0,2026-08-24_23-25-27,2026-08-25
1.0,1.0,0.8671171171171171,1.0,0.0,0.0,0.0,0.0,0.0,1.0,1.0,0.5435791015625,0.07470703125,0.0364990234375,-0.018768310546875,-0.0006103515625,-0.000946044921875,N,0,2026-08-24_23-25-27,2026-08-25
1.0,1.0,0.8761261261261262,1.0,0.0,0.0,0.0,0.0,0.0,1.0,1.0,0.5509033203125,0.066650390625,0.0472412109375,-0.02203369140625,0.002685546875,-0.010040283203125,N,0,2026-08-24_23-25-27,2026-08-25
1.0,1.0,0.8986486486486487,1.0,0.0,0.0,0.0,0.0,0.0,1.0,1.0,0.5546875,0.0751953125,0.045166015625,-0.032562255859375,-0.011688232421875,-0.007110595703125,N,0,2026-08-24_23-25-27,2026-08-25
1.0,1.0,0.9031531531531531,1.0,0.0,0.0,0.0,0.0,0.0,1.0,1.0,0.552734375,0.0849609375,0.0516357421875,-0.03692626953125,-0.01397705078125,-0.005340576171875,N,0,2026-08-24_23-25-27,2026-08-25
1.0,1.0,0.8716216216216216,1.0,0.0,0.0,0.0,0.0,0.0,1.0,1.0,0.543212890625,0.09521484375,0.0443115234375,-0.0289306640625,-0.00689697265625,-0.007110595703125,N,0,2026-08-24_23-25-27,2026-08-25
1.0,1.0,0.9054054054054054,1.0,0.0,0.0,0.0,0.0,0.0,1.0,1.0,0.553466796875,0.10205078125,0.0501708984375,-0.0267333984375,0.0010986328125,-0.010284423828125,N,0,2026-08-24_23-25-27,2026-08-25
1.0,1.0,0.8941441441441441,1.0,0.0,0.0,0.0,0.0,0.0,1.0,1.0,0.5567626953125,0.11474609375,0.0572509765625,-0.03515625,-0.003814697265625,-0.000701904296875,N,0,2026-08-24_23-25-27,2026-08-25
1.0,1.0,0.8986486486486487,1.0,0.0,0.0,0.0,0.0,0.0,1.0,1.0,0.5556640625,0.107177734375,0.0609130859375,-0.0400390625,-0.010498046875,0.008941650390625,N,0,2026-08-24_23-25-27,2026-08-25
1.0,1.0,0.8896396396396397,1.0,0.0,0.0,0.0,0.0,0.0,1.0,1.0,0.54736328125,0.107421875,0.0638427734375,-0.03509521484375,-0.01263427734375,0.01239013671875,N,0,2026-08-24_23-25-27,2026-08-25
1.0,1.0,0.8738738738738738,1.0,0.0,0.0,0.0,0.0,0.0,1.0,1.0,0.55126953125,0.0947265625,0.0538330078125,-0.01708984375,-0.006317138671875,0.011138916015625,N,0,2026-08-24_23-25-27,2026-08-25
1.0,1.0,0.9009009009009009,1.0,0.0,0.0,0.0,0.0,0.0,1.0,1.0,0.550048828125,0.0718994140625,0.044677734375,-0.021087646484375,-0.008636474609375,0.001678466796875,N,0,2026-08-24_23-25-27,2026-08-25
1.0,1.0,0.8941441441441441,1.0,0.0,0.0,0.0,0.0,0.0,1.0,1.0,0.5499267578125,0.082763671875,0.0479736328125,-0.03729248046875,-0.007537841796875,0.00177001953125,N,0,2026-08-24_23-25-27,2026-08-25
1.0,1.0,0.8896396396396397,1.0,0.0,0.0,0.0,0.0,0.0,1.0,1.0,0.54931640625,0.0780029296875,0.0457763671875,-0.052490234375,-0.01153564453125,0.0029296875,N,0,2026-08-24_23-25-27,2026-08-25
1.0,0.9951719975859988,0.9054054054054054,1.0,0.0,0.0,0.0,0.0,0.0,1.0,1.0,0.552490234375,0.086181640625,0.0560302734375,-0.0477294921875,-0.0086669921875,0.001556396484375,N,0,2026-08-24_23-25-27,2026-08-25
1.0,0.9806879903439951,0.8783783783783784,1.0,0.0,0.0,0.0,0.0,0.0,1.0,1.0,0.556640625,0.09423828125,0.0550537109375,-0.028350830078125,-0.00811767578125,-0.000640869140625,N,0,2026-08-24_23-25-27,2026-08-25
1.0,1.0,0.9054054054054054,1.0,0.0,0.0,0.0,0.0,0.0,1.0,1.0,0.5531005859375,0.09033203125,0.042236328125,-0.00921630859375,-0.0106201171875,0.000274658203125,N,0,2026-08-24_23-25-27,2026-08-25
1.0,1.0,0.8806306306306306,1.0,0.0,0.0,0.0,0.0,0.0,1.0,1.0,0.5498046875,0.0833740234375,0.04638671875,-0.016448974609375,-0.010040283203125,-0.002105712890625,N,0,2026-08-24_23-25-27,2026-08-25
1.0,0.9867229933614967,0.9054054054054054,1.0,0.0,0.0,0.0,0.0,0.0,1.0,0.0,0.553466796875,0.087646484375,0.0357666015625,-0.021881103515625,-0.008087158203125,0.001007080078125,N,1,2026-08-24_23-25-27,2026-08-25
1.0,0.9493059746529873,0.9076576576576577,1.0,0.0,0.0,0.0,0.0,0.0,1.0,0.0,0.55517578125,0.087646484375,0.0247802734375,-0.022918701171875,-0.009307861328125,0.000274658203125,N,1,2026-08-24_23-25-27,2026-08-25
1.0,0.9915509957754979,0.9211711711711712,1.0,0.0,0.0,0.0,0.0,0.0,1.0,1.0,0.5537109375,0.0882568359375,0.0240478515625,-0.014007568359375,-0.01470947265625,0.000579833984375,N,1,2026-08-24_23-25-27,2026-08-25
1.0,0.9891369945684972,0.9054054054054054,1.0,0.0,0.0,0.0,0.0,0.0,1.0,1.0,0.552978515625,0.1041259765625,0.0228271484375,-0.00537109375,-0.008148193359375,0.001312255859375,N,1,2026-08-24_23-25-27,2026-08-25
1.0,1.0,0.9256756756756757,1.0,0.0,0.0,0.0,0.0,0.0,1.0,0.0,0.5557861328125,0.0885009765625,0.0206298828125,-0.009735107421875,-0.00469970703125,0.00238037109375,N,1,2026-08-24_23-25-27,2026-08-25
1.0,1.0,0.9076576576576577,1.0,0.0,0.0,0.0,0.0,0.0,1.0,0.0,0.55517578125,0.087890625,0.0140380859375,-0.01715087890625,-0.004364013671875,-0.0054931640625,N,1,2026-08-24_23-25-27,2026-08-25
1.0,1.0,0.9054054054054054,1.0,0.0,0.0,0.0,0.0,0.0,1.0,0.0,0.5572509765625,0.0987548828125,0.0224609375,-0.02227783203125,-0.000274658203125,0.00299072265625,N,1,2026-08-24_23-25-27,2026-08-25
1.0,0.987929993964997,0.8986486486486487,1.0,0.0,0.0,0.0,0.0,0.0,1.0,1.0,0.55859375,0.0936279296875,0.0267333984375,-0.0224609375,-0.004669189453125,0.011322021484375,N,1,2026-08-24_23-25-27,2026-08-25
1.0,1.0,0.9301801801801802,1.0,0.0,0.0,0.0,0.0,0.0,1.0,1.0,0.5552978515625,0.083251953125,0.02490234375,-0.0238037109375,-0.001922607421875,0.007659912109375,N,1,2026-08-24_23-25-27,2026-08-25
1.0,1.0,0.9166666666666666,1.0,0.0,0.0,0.0,0.0,0.0,1.0,1.0,0.54833984375,0.0750732421875,0.029541015625,-0.0181884765625,0.004730224609375,-0.001678466796875,N,1,2026-08-24_23-25-27,2026-08-25
1.0,0.9867229933614967,0.9144144144144144,1.0,0.0,0.0,0.0,0.0,0.0,1.0,1.0,0.5555419921875,0.0848388671875,0.031005859375,-0.012176513671875,0.0023193359375,-0.00079345703125,N,1,2026-08-24_23-25-27,2026-08-25
1.0,0.9939649969824985,0.9166666666666666,1.0,0.0,0.0,0.0,0.0,0.0,1.0,1.0,0.5537109375,0.0814208984375,0.03076171875,-0.015228271484375,-0.002410888671875,0.00494384765625,N,1,2026-08-24_23-25-27,2026-08-25
1.0,0.987929993964997,0.9031531531531531,1.0,0.0,0.0,0.0,0.0,0.0,1.0,0.0,0.54931640625,0.081787109375,0.0374755859375,-0.02374267578125,-0.007568359375,0.00762939453125,N,1,2026-08-24_23-25-27,2026-08-25
1.0,0.996378998189499,0.9121621621621622,1.0,0.0,0.0,0.0,0.0,0.0,1.0,0.0,0.546142578125,0.0875244140625,0.04931640625,-0.031463623046875,-0.00958251953125,0.007843017578125,N,1,2026-08-24_23-25-27,2026-08-25
1.0,0.996378998189499,0.9054054054054054,1.0,0.0,0.0,0.0,0.0,0.0,1.0,1.0,0.541259765625,0.099853515625,0.044677734375,-0.01885986328125,-0.0078125,0.0047607421875,N,1,2026-08-24_23-25-27,2026-08-25
1.0,0.9939649969824985,0.9031531531531531,1.0,0.0,0.0,0.0,0.0,0.0,1.0,1.0,0.544189453125,0.0924072265625,0.032470703125,-0.0059814453125,0.00054931640625,0.004364013671875,N,1,2026-08-24_23-25-27,2026-08-25
1.0,1.0,0.9121621621621622,1.0,0.0,0.0,0.0,0.0,0.0,1.0,1.0,0.5479736328125,0.0850830078125,0.0364990234375,-0.001495361328125,-0.00360107421875,0.00396728515625,N,1,2026-08-24_23-25-27,2026-08-25
1.0,0.9987929993964997,0.9054054054054054,1.0,0.0,0.0,0.0,0.0,0.0,1.0,1.0,0.5496826171875,0.0911865234375,0.035888671875,-0.011260986328125,-0.0074462890625,0.011932373046875,N,1,2026-08-24_23-25-27,2026-08-25
1.0,1.0,0.8986486486486487,1.0,0.0,0.0,0.0,0.0,0.0,1.0,1.0,0.5498046875,0.0916748046875,0.0390625,-0.01751708984375,-0.01324462890625,0.01397705078125,N,1,2026-08-24_23-25-27,2026-08-25
1.0,0.9927579963789982,0.9099099099099099,1.0,0.0,0.0,0.0,0.0,0.0,1.0,1.0,0.5516357421875,0.076904296875,0.0234375,-0.01361083984375,-0.008270263671875,0.00628662109375,N,1,2026-08-24_23-25-27,2026-08-25
1.0,0.9915509957754979,0.9076576576576577,1.0,0.0,0.0,0.0,0.0,0.0,1.0,1.0,0.55224609375,0.0833740234375,0.033935546875,-0.011199951171875,-0.004730224609375,-0.00189208984375,N,1,2026-08-24_23-25-27,2026-08-25
1.0,0.9843089921544961,0.9076576576576577,1.0,0.0,0.0,0.0,0.0,0.0,1.0,1.0,0.557861328125,0.092529296875,0.0294189453125,-0.007110595703125,-0.003265380859375,0.003662109375,N,1,2026-08-24_23-25-27,2026-08-25
1.0,0.996378998189499,0.9301801801801802,1.0,0.0,0.0,0.0,0.0,0.0,1.0,1.0,0.557861328125,0.0887451171875,0.02294921875,-0.011871337890625,-0.0120849609375,0.00634765625,N,1,2026-08-24_23-25-27,2026-08-25
1.0,0.9975859987929994,0.9099099099099099,1.0,0.0,0.0,0.0,0.0,0.0,1.0,1.0,0.55712890625,0.08984375,0.0274658203125,-0.018707275390625,-0.009185791015625,0.00250244140625,N,1,2026-08-24_23-25-27,2026-08-25
1.0,0.9939649969824985,0.8986486486486487,1.0,0.0,0.0,0.0,0.0,0.0,1.0,1.0,0.5509033203125,0.092041015625,0.0262451171875,-0.003204345703125,-0.00299072265625,-0.000946044921875,N,1,2026-08-24_23-25-27,2026-08-25
1.0,0.996378998189499,0.8963963963963963,1.0,0.0,0.0,0.0,0.0,0.0,1.0,1.0,0.5565185546875,0.083251953125,0.02685546875,0.004241943359375,-0.0009765625,0.003173828125,N,1,2026-08-24_23-25-27,2026-08-25
1.0,0.9927579963789982,0.9121621621621622,1.0,0.0,0.0,0.0,0.0,0.0,1.0,1.0,0.557373046875,0.0784912109375,0.0244140625,-0.010955810546875,-0.007659912109375,0.005218505859375,N,1,2026-08-24_23-25-27,2026-08-25
1.0,0.9951719975859988,0.9054054054054054,1.0,0.0,0.0,0.0,0.0,0.0,1.0,1.0,0.5504150390625,0.095947265625,0.030029296875,-0.027984619140625,-0.00213623046875,0.00567626953125,N,1,2026-08-24_23-25-27,2026-08-25
1.0,0.9975859987929994,0.9054054054054054,1.0,0.0,0.0,0.0,0.0,0.0,1.0,1.0,0.5523681640625,0.0855712890625,0.0291748046875,-0.019439697265625,0.001708984375,0.005218505859375,N,1,2026-08-24_23-25-27,2026-08-25
1.0,0.9891369945684972,0.9076576576576577,1.0,0.0,0.0,0.0,0.0,0.0,1.0,1.0,0.549560546875,0.07763671875,0.029052734375,-0.01556396484375,-0.000244140625,-6.103515625e-05,N,1,2026-08-24_23-25-27,2026-08-25
1.0,1.0,0.9076576576576577,1.0,0.0,0.0,0.0,0.0,0.0,1.0,1.0,0.5501708984375,0.0921630859375,0.0369873046875,-0.015380859375,0.00079345703125,0.004180908203125,N,1,2026-08-24_23-25-27,2026-08-25
1.0,0.987929993964997,0.8873873873873874,1.0,0.0,0.0,0.0,0.0,0.0,1.0,1.0,0.5567626953125,0.0906982421875,0.0452880859375,-0.024993896484375,-0.011474609375,0.011444091796875,N,1,2026-08-24_23-25-27,2026-08-25
1.0,0.9891369945684972,0.9256756756756757,1.0,0.0,0.0,0.0,0.0,0.0,1.0,1.0,0.54296875,0.0841064453125,0.0335693359375,-0.025909423828125,-0.01153564453125,0.01043701171875,N,1,2026-08-24_23-25-27,2026-08-25
1.0,0.9951719975859988,0.9076576576576577,1.0,0.0,0.0,0.0,0.0,0.0,1.0,1.0,0.5469970703125,0.0841064453125,0.0345458984375,-0.021026611328125,-0.001739501953125,0.00543212890625,N,1,2026-08-24_23-25-27,2026-08-25
1.0,0.9939649969824985,0.9211711711711712,1.0,0.0,0.0,0.0,0.0,0.0,1.0,1.0,0.5537109375,0.0921630859375,0.04052734375,-0.027618408203125,0.00726318359375,0.010772705078125,N,1,2026-08-24_23-25-27,2026-08-25
1.0,0.996378998189499,0.9054054054054054,1.0,0.0,0.0,0.0,0.0,0.0,1.0,1.0,0.55615234375,0.0958251953125,0.02392578125,-0.036468505859375,-0.015594482421875,0.025177001953125,N,1,2026-08-24_23-25-27,2026-08-25
1.0,0.9951719975859988,0.9099099099099099,1.0,0.0,0.0,0.0,0.0,0.0,1.0,1.0,0.5560302734375,0.08837890625,0.0338134765625,-0.0306396484375,-0.023773193359375,0.024169921875,N,1,2026-08-24_23-25-27,2026-08-25
1.0,0.9927579963789982,0.9054054054054054,1.0,0.0,0.0,0.0,0.0,0.0,1.0,1.0,0.547607421875,0.0772705078125,0.02880859375,-0.011749267578125,-0.016448974609375,0.015716552734375,N,1,2026-08-24_23-25-27,2026-08-25
1.0,0.9867229933614967,0.9009009009009009,1.0,0.0,0.0,0.0,0.0,0.0,1.0,0.0,0.5533447265625,0.0772705078125,0.027099609375,-0.001373291015625,-0.007843017578125,0.007110595703125,N,1,2026-08-24_23-25-27,2026-08-25
1.0,0.996378998189499,0.9076576576576577,1.0,0.0,0.0,0.0,0.0,0.0,1.0,0.0,0.5496826171875,0.0677490234375,0.016357421875,-0.02239990234375,-0.019439697265625,0.0107421875,N,1,2026-08-24_23-25-27,2026-08-25
1.0,1.0,1.0,1.0,0.0,0.0,0.0,0.0,0.0,1.0,1.0,0.547607421875,0.10498046875,0.0709228515625,-0.004547119140625,-0.008514404296875,0.00830078125,N,2,2026-08-24_23-25-27,2026-08-25
1.0,0.9891369945684972,0.9819819819819819,1.0,0.012738853503184714,0.0,0.0,0.0,0.0,1.0,1.0,0.5504150390625,0.09765625,0.0711669921875,-0.003204345703125,-0.006988525390625,0.0108642578125,N,2,2026-08-24_23-25-27,2026-08-25
1.0,1.0,1.0,1.0,0.025477707006369428,0.0,0.0,0.0,0.0,1.0,1.0,0.5460205078125,0.0943603515625,0.078369140625,-0.008331298828125,-0.01129150390625,0.006134033203125,N,2,2026-08-24_23-25-27,2026-08-25
1.0,1.0,1.0,1.0,0.08917197452229299,0.0,0.0,0.0,0.0,1.0,1.0,0.5479736328125,0.0992431640625,0.073974609375,-0.011932373046875,-0.0155029296875,0.005126953125,N,2,2026-08-24_23-25-27,2026-08-25
1.0,1.0,1.0,1.0,0.0,0.0,0.0,0.0,0.0,1.0,1.0,0.5450439453125,0.1048583984375,0.0731201171875,-0.014739990234375,-0.012054443359375,0.007720947265625,N,2,2026-08-24_23-25-27,2026-08-25
1.0,1.0,1.0,1.0,0.06369426751592357,0.0,0.0,0.0,0.0,1.0,1.0,0.5450439453125,0.1024169921875,0.0841064453125,-0.012054443359375,-0.01544189453125,0.00994873046875,N,2,2026-08-24_23-25-27,2026-08-25
1.0,0.996378998189499,1.0,1.0,0.012738853503184714,0.0,0.0,0.0,0.0,1.0,1.0,0.5439453125,0.101318359375,0.072998046875,-0.000885009765625,-0.00970458984375,0.007904052734375,N,2,2026-08-24_23-25-27,2026-08-25
1.0,0.9855159927579964,0.990990990990991,1.0,0.12738853503184713,0.0,0.0,0.0,0.0,1.0,1.0,0.5467529296875,0.0982666015625,0.075927734375,6.103515625e-05,-0.015380859375,0.006103515625,N,2,2026-08-24_23-25-27,2026-08-25
1.0,0.9710319855159928,0.9864864864864865,1.0,0.0,0.0,0.0,0.0,0.0,1.0,1.0,0.545654296875,0.0953369140625,0.0748291015625,-0.006744384765625,-0.015228271484375,0.006561279296875,N,2,2026-08-24_23-25-27,2026-08-25
1.0,0.9818949909474954,0.9819819819819819,1.0,0.050955414012738856,0.0,0.0,0.0,0.0,1.0,1.0,0.54931640625,0.100341796875,0.0745849609375,-0.01556396484375,-0.010894775390625,0.009368896484375,N,2,2026-08-24_23-25-27,2026-08-25
1.0,0.9843089921544961,1.0,1.0,0.0,0.0,0.0,0.0,0.0,1.0,1.0,0.5487060546875,0.1060791015625,0.072021484375,-0.01519775390625,-0.011260986328125,0.01171875,N,2,2026-08-24_23-25-27,2026-08-25
1.0,1.0,1.0,1.0,0.03821656050955414,0.0,0.0,0.0,0.0,1.0,1.0,0.546630859375,0.09326171875,0.06982421875,-0.002960205078125,-0.010009765625,0.007598876953125,N,2,2026-08-24_23-25-27,2026-08-25
1.0,0.987929993964997,0.9774774774774775,1.0,0.0,0.0,0.0,0.0,0.0,1.0,1.0,0.5404052734375,0.09814453125,0.0740966796875,0.001739501953125,-0.004119873046875,0.004547119140625,N,2,2026-08-24_23-25-27,2026-08-25
1.0,1.0,1.0,1.0,0.012738853503184714,0.0,0.0,0.0,0.0,1.0,1.0,0.553466796875,0.0936279296875,0.06884765625,-0.006317138671875,-0.009033203125,0.0035400390625,N,2,2026-08-24_23-25-27,2026-08-25
1.0,0.9806879903439951,0.9774774774774775,1.0,0.0,0.0,0.0,0.0,0.0,1.0,1.0,0.5504150390625,0.1029052734375,0.0738525390625,-0.012603759765625,-0.01324462890625,0.007354736328125,N,2,2026-08-24_23-25-27,2026-08-25
1.0,0.9975859987929994,1.0,1.0,0.03821656050955414,0.0,0.0,0.0,0.0,1.0,1.0,0.5540771484375,0.09521484375,0.0645751953125,-0.01312255859375,-0.010498046875,0.007354736328125,N,2,2026-08-24_23-25-27,2026-08-25
1.0,0.9987929993964997,0.9887387387387387,1.0,0.0,0.0,0.0,0.0,0.0,1.0,1.0,0.5511474609375,0.108154296875,0.0782470703125,-0.016204833984375,-0.0169677734375,0.00341796875,N,2,2026-08-24_23-25-27,2026-08-25
1.0,0.9891369945684972,1.0,1.0,0.0,0.0,0.0,0.0,0.0,1.0,1.0,0.549560546875,0.099609375,0.0677490234375,-0.003387451171875,-0.01318359375,0.008148193359375,N,2,2026-08-24_23-25-27,2026-08-25
1.0,1.0,1.0,1.0,0.03821656050955414,0.0,0.0,0.0,0.0,1.0,1.0,0.541748046875,0.0867919921875,0.0601806640625,-0.01910400390625,-0.00146484375,-0.005218505859375,N,2,2026-08-24_23-25-27,2026-08-25
1.0,1.0,1.0,1.0,0.0,0.0,0.0,0.0,0.0,1.0,1.0,0.545166015625,0.0975341796875,0.076171875,-0.0166015625,0.00115966796875,-0.0042724609375,N,2,2026-08-24_23-25-27,2026-08-25
1.0,1.0,1.0,1.0,0.0,0.0,0.0,0.0,0.0,1.0,1.0,0.550537109375,0.0863037109375,0.0654296875,-0.015411376953125,-0.003326416015625,-0.00018310546875,N,2,2026-08-24_23-25-27,2026-08-25
1.0,1.0,0.9887387387387387,1.0,0.0,0.0,0.0,0.0,0.0,1.0,1.0,0.5450439453125,0.098876953125,0.0732421875,-0.02874755859375,-0.00653076171875,-0.00469970703125,N,2,2026-08-24_23-25-27,2026-08-25
1.0,1.0,0.9932432432432432,1.0,0.0,0.0,0.0,0.0,0.0,1.0,1.0,0.5469970703125,0.101806640625,0.0751953125,-0.02337646484375,-0.00323486328125,0.001983642578125,N,2,2026-08-24_23-25-27,2026-08-25
1.0,1.0,1.0,1.0,0.012738853503184714,0.0,0.0,0.0,0.0,1.0,1.0,0.5450439453125,0.089599609375,0.0655517578125,-0.036956787109375,-0.0045166015625,-0.0076904296875,N,2,2026-08-24_23-25-27,2026-08-25
1.0,0.9806879903439951,0.9842342342342343,1.0,0.025477707006369428,0.0,0.0,0.0,0.0,1.0,1.0,0.534423828125,0.0855712890625,0.0709228515625,-0.04827880859375,-0.00103759765625,-0.01318359375,N,2,2026-08-24_23-25-27,2026-08-25
1.0,0.9939649969824985,0.9797297297297297,1.0,0.012738853503184714,0.0,0.0,0.0,0.0,1.0,1.0,0.5469970703125,0.079345703125,0.07958984375,-0.062652587890625,0.001739501953125,-0.017730712890625,N,2,2026-08-24_23-25-27,2026-08-25
1.0,0.9806879903439951,1.0,1.0,0.0,0.0,0.0,0.0,0.0,1.0,1.0,0.5457763671875,0.0908203125,0.0770263671875,-0.087188720703125,-0.00213623046875,-0.02105712890625,N,2,2026-08-24_23-25-27,2026-08-25
1.0,0.9939649969824985,0.9977477477477478,1.0,0.012738853503184714,0.0,0.0,0.0,0.0,1.0,1.0,0.547119140625,0.0982666015625,0.0931396484375,-0.106048583984375,-0.001708984375,-0.020660400390625,N,2,2026-08-24_23-25-27,2026-08-25
1.0,0.9831019915509958,0.9977477477477478,1.0,0.0,0.0,0.0,0.0,0.0,1.0,1.0,0.5455322265625,0.1226806640625,0.08642578125,-0.10162353515625,-0.00640869140625,-0.013275146484375,N,2,2026-08-24_23-25-27,2026-08-25
1.0,0.9987929993964997,1.0,1.0,0.03821656050955414,0.0,0.0,0.0,0.0,1.0,1.0,0.5439453125,0.1220703125,0.074951171875,-0.067474365234375,-0.006256103515625,-0.006744384765625,N,2,2026-08-24_23-25-27,2026-08-25
1.0,0.9843089921544961,0.9932432432432432,1.0,0.012738853503184714,0.0,0.0,0.0,0.0,1.0,1.0,0.550537109375,0.1297607421875,0.081298828125,-0.04376220703125,-0.007049560546875,-0.002777099609375,N,2,2026-08-24_23-25-27,2026-08-25
1.0,0.9915509957754979,1.0,1.0,0.0,0.0,0.0,0.0,0.0,1.0,1.0,0.55029296875,0.133544921875,0.0848388671875,-0.021392822265625,-0.010467529296875,0.009979248046875,N,2,2026-08-24_23-25-27,2026-08-25
1.0,0.9891369945684972,0.9887387387387387,1.0,0.025477707006369428,0.0,0.0,0.0,0.0,1.0,1.0,0.5478515625,0.0926513671875,0.070556640625,-0.0106201171875,-0.00994873046875,0.0096435546875,N,2,2026-08-24_23-25-27,2026-08-25
1.0,0.9975859987929994,1.0,1.0,0.0,0.0,0.0,0.0,0.0,1.0,1.0,0.54248046875,0.0943603515625,0.0792236328125,-0.02740478515625,-0.010894775390625,0.00128173828125,N,2,2026-08-24_23-25-27,2026-08-25
1.0,0.9891369945684972,1.0,1.0,0.025477707006369428,0.0,0.0,0.0,0.0,1.0,1.0,0.54541015625,0.118408203125,0.0836181640625,-0.02587890625,-0.005889892578125,0.017486572265625,N,2,2026-08-24_23-25-27,2026-08-25
1.0,0.9806879903439951,0.9774774774774775,1.0,0.0,0.0,0.0,0.0,0.0,1.0,1.0,0.555908203125,0.0970458984375,0.0712890625,-0.014129638671875,-0.014556884765625,0.021392822265625,N,2,2026-08-24_23-25-27,2026-08-25
1.0,1.0,0.9932432432432432,1.0,0.012738853503184714,0.0,0.0,0.0,0.0,1.0,1.0,0.541748046875,0.077880859375,0.0665283203125,-0.011138916015625,-0.01654052734375,0.001953125,N,2,2026-08-24_23-25-27,2026-08-25
1.0,1.0,1.0,1.0,0.0,0.0,0.0,0.0,0.0,1.0,1.0,0.5433349609375,0.1011962890625,0.0743408203125,-0.002410888671875,-0.003753662109375,-0.00189208984375,N,2,2026-08-24_23-25-27,2026-08-25
1.0,1.0,0.9572072072072072,1.0,0.0,0.0,0.0,0.0,0.0,1.0,1.0,0.5501708984375,0.088134765625,0.0654296875,-0.009521484375,-0.009033203125,0.0003662109375,N,2,2026-08-24_23-25-27,2026-08-25
1.0,0.9867229933614967,0.9774774774774775,1.0,0.0,0.0,0.0,0.0,0.0,1.0,1.0,0.5458984375,0.1124267578125,0.0726318359375,-0.022003173828125,-0.00616455078125,0.00079345703125,N,2,2026-08-24_23-25-27,2026-08-25
1.0,0.996378998189499,1.0,1.0,0.0,0.0,0.0,0.0,0.0,1.0,1.0,0.5455322265625,0.1026611328125,0.0159912109375,-0.012298583984375,-0.013336181640625,0.005523681640625,N,3,2026-08-24_23-25-27,2026-08-25
1.0,0.9927579963789982,1.0,1.0,0.0,0.0,0.0,0.0,0.0,1.0,1.0,0.555908203125,0.088623046875,0.0177001953125,-0.009185791015625,-0.003265380859375,0.002716064453125,N,3,2026-08-24_23-25-27,2026-08-25
1.0,0.9867229933614967,0.9774774774774775,1.0,0.0,0.0,0.0,0.0,0.0,1.0,1.0,0.5557861328125,0.089599609375,0.020751953125,-0.01202392578125,-0.001190185546875,0.001953125,N,3,2026-08-24_23-25-27,2026-08-25
1.0,0.9927579963789982,0.9797297297297297,1.0,0.0,0.0,0.0,0.0,0.0,1.0,1.0,0.5567626953125,0.0858154296875,0.0152587890625,-0.010589599609375,-0.004791259765625,0.006072998046875,N,3,2026-08-24_23-25-27,2026-08-25
1.0,0.9843089921544961,0.9864864864864865,1.0,0.0,0.0,0.0,0.0,0.0,1.0,1.0,0.5543212890625,0.0841064453125,0.022216796875,-0.018280029296875,-0.00860595703125,0.00665283203125,N,3,2026-08-24_23-25-27,2026-08-25
1.0,0.9831019915509958,0.9774774774774775,1.0,0.0,0.0,0.0,0.0,0.0,1.0,1.0,0.555908203125,0.0859375,0.0234375,-0.015167236328125,-0.005706787109375,0.008575439453125,N,3,2026-08-24_23-25-27,2026-08-25
1.0,0.9831019915509958,1.0,1.0,0.06369426751592357,0.0,0.0,0.0,0.0,1.0,1.0,0.5546875,0.083740234375,0.0247802734375,-0.021240234375,-0.007049560546875,0.00311279296875,N,3,2026-08-24_23-25-27,2026-08-25
1.0,0.9867229933614967,0.9864864864864865,1.0,0.0,0.0,0.0,0.0,0.0,1.0,1.0,0.551513671875,0.0938720703125,0.03369140625,-0.0140380859375,-0.0107421875,0.002532958984375,N,3,2026-08-24_23-25-27,2026-08-25
1.0,0.9806879903439951,0.9887387387387387,1.0,0.025477707006369428,0.0,0.0,0.0,0.0,1.0,1.0,0.5516357421875,0.083740234375,0.0225830078125,-0.003387451171875,-0.01251220703125,0.00396728515625,N,3,2026-08-24_23-25-27,2026-08-25
1.0,0.9843089921544961,0.9752252252252253,1.0,0.06369426751592357,0.0,0.0,0.0,0.0,1.0,1.0,0.5506591796875,0.0865478515625,0.025634765625,-0.01806640625,-0.015350341796875,0.00164794921875,N,3,2026-08-24_23-25-27,2026-08-25
1.0,0.9951719975859988,1.0,1.0,0.0,0.0,0.0,0.0,0.0,1.0,1.0,0.5482177734375,0.095947265625,0.025390625,-0.016510009765625,-0.011749267578125,0.008758544921875,N,3,2026-08-24_23-25-27,2026-08-25
1.0,0.9794809897404949,0.9977477477477478,1.0,0.012738853503184714,0.0,0.0,0.0,0.0,1.0,1.0,0.55517578125,0.092041015625,0.0272216796875,-0.0101318359375,-0.010040283203125,0.0111083984375,N,3,2026-08-24_23-25-27,2026-08-25
1.0,0.996378998189499,1.0,1.0,0.0,0.0,0.0,0.0,0.0,1.0,1.0,0.55322265625,0.09375,0.0230712890625,0.00079345703125,-0.021759033203125,0.010894775390625,N,3,2026-08-24_23-25-27,2026-08-25
1.0,0.9915509957754979,1.0,1.0,0.0,0.0,0.0,0.0,0.0,1.0,1.0,0.548828125,0.0792236328125,0.0146484375,-0.000518798828125,-0.014892578125,0.00115966796875,N,3,2026-08-24_23-25-27,2026-08-25
1.0,0.9927579963789982,0.9932432432432432,1.0,0.0,0.0,0.0,0.0,0.0,1.0,1.0,0.5555419921875,0.0833740234375,0.01806640625,-0.006134033203125,-0.00640869140625,0.0010986328125,N,3,2026-08-24_23-25-27,2026-08-25
1.0,0.9975859987929994,1.0,1.0,0.06369426751592357,0.0,0.0,0.0,0.0,1.0,1.0,0.5560302734375,0.0865478515625,0.0179443359375,-0.0145263671875,-0.008148193359375,0.004302978515625,N,3,2026-08-24_23-25-27,2026-08-25
1.0,1.0,1.0,1.0,0.03821656050955414,0.0,0.0,0.0,0.0,1.0,1.0,0.555908203125,0.0863037109375,0.0167236328125,-0.0068359375,-0.004913330078125,0.0045166015625,N,3,2026-08-24_23-25-27,2026-08-25
1.0,1.0,1.0,1.0,0.025477707006369428,0.0,0.0,0.0,0.0,1.0,1.0,0.5665283203125,0.0894775390625,0.02294921875,-0.0042724609375,-0.010650634765625,0.000701904296875,N,3,2026-08-24_23-25-27,2026-08-25
1.0,0.9927579963789982,1.0,1.0,0.03821656050955414,0.0,0.0,0.0,0.0,1.0,1.0,0.553955078125,0.091064453125,0.0159912109375,-0.012939453125,-0.01727294921875,0.00299072265625,N,3,2026-08-24_23-25-27,2026-08-25
1.0,0.9770669885334943,0.9774774774774775,1.0,0.03821656050955414,0.0,0.0,0.0,0.0,1.0,1.0,0.55322265625,0.0904541015625,0.0167236328125,-0.014892578125,-0.00811767578125,0.007720947265625,N,3,2026-08-24_23-25-27,2026-08-25
1.0,0.9975859987929994,1.0,1.0,0.0,0.0,0.0,0.0,0.0,1.0,1.0,0.5635986328125,0.0860595703125,0.0223388671875,-0.01812744140625,-0.007781982421875,0.004730224609375,N,3,2026-08-24_23-25-27,2026-08-25
1.0,0.9903439951719976,0.9954954954954955,1.0,0.0,0.0,0.0,0.0,0.0,1.0,1.0,0.5511474609375,0.0869140625,0.01513671875,-0.00927734375,-0.0096435546875,-0.000274658203125,N,3,2026-08-24_23-25-27,2026-08-25
1.0,1.0,0.9932432432432432,1.0,0.0,0.0,0.0,0.0,0.0,1.0,1.0,0.557861328125,0.092041015625,0.0220947265625,0.00384521484375,-0.004669189453125,0.00115966796875,N,3,2026-08-24_23-25-27,2026-08-25
1.0,0.9915509957754979,1.0,1.0,0.025477707006369428,0.0,0.0,0.0,0.0,1.0,1.0,0.55859375,0.0859375,0.021728515625,0.0029296875,-0.014984130859375,0.004608154296875,N,3,2026-08-24_23-25-27,2026-08-25
1.0,0.9903439951719976,0.990990990990991,1.0,0.0,0.0,0.0,0.0,0.0,1.0,1.0,0.5491943359375,0.0848388671875,0.018310546875,-0.0106201171875,-0.01190185546875,0.00360107421875,N,3,2026-08-24_23-25-27,2026-08-25
1.0,0.9806879903439951,0.990990990990991,1.0,0.03821656050955414,0.0,0.0,0.0,0.0,1.0,1.0,0.5498046875,0.080322265625,0.018798828125,-0.014617919921875,-0.004638671875,0.000518798828125,N,3,2026-08-24_23-25-27,2026-08-25
1.0,0.9794809897404949,0.9774774774774775,1.0,0.012738853503184714,0.0,0.0,0.0,0.0,1.0,1.0,0.54638671875,0.08154296875,0.0167236328125,-0.018402099609375,0.0045166015625,-0.006439208984375,N,3,2026-08-24_23-25-27,2026-08-25
1.0,1.0,0.9887387387387387,1.0,0.012738853503184714,0.0,0.0,0.0,0.0,1.0,1.0,0.5521240234375,0.0921630859375,0.0233154296875,-0.010650634765625,-0.002410888671875,-0.00372314453125,N,3,2026-08-24_23-25-27,2026-08-25
1.0,0.9794809897404949,1.0,1.0,0.0,0.0,0.0,0.0,0.0,1.0,1.0,0.55322265625,0.0919189453125,0.01806640625,-0.008575439453125,-0.007598876953125,0.00372314453125,N,3,2026-08-24_23-25-27,2026-08-25
1.0,0.9867229933614967,0.9977477477477478,1.0,0.025477707006369428,0.0,0.0,0.0,0.0,1.0,1.0,0.55126953125,0.0948486328125,0.0157470703125,-0.013641357421875,-0.0107421875,0.00811767578125,N,3,2026-08-24_23-25-27,2026-08-25
1.0,0.9915509957754979,0.9954954954954955,1.0,0.0,0.0,0.0,0.0,0.0,1.0,1.0,0.5450439453125,0.0875244140625,0.0189208984375,-0.01849365234375,-0.004302978515625,0.0050048828125,N,3,2026-08-24_23-25-27,2026-08-25
1.0,1.0,0.9842342342342343,1.0,0.0,0.0,0.0,0.0,0.0,1.0,1.0,0.55517578125,0.0894775390625,0.0242919921875,-0.01763916015625,0.001007080078125,0.00225830078125,N,3,2026-08-24_23-25-27,2026-08-25
1.0,0.987929993964997,1.0,1.0,0.0,0.0,0.0,0.0,0.0,1.0,1.0,0.5556640625,0.0902099609375,0.0206298828125,-0.011871337890625,-0.004638671875,0.00341796875,N,3,2026-08-24_23-25-27,2026-08-25
1.0,1.0,0.9977477477477478,1.0,0.0,0.0,0.0,0.0,0.0,1.0,1.0,0.5526123046875,0.090576171875,0.020263671875,-0.012969970703125,-0.010284423828125,0.004150390625,N,3,2026-08-24_23-25-27,2026-08-25
1.0,0.9915509957754979,1.0,1.0,0.0,0.0,0.0,0.0,0.0,1.0,1.0,0.553466796875,0.090087890625,0.01904296875,-0.012481689453125,-0.01190185546875,0.0054931640625,N,3,2026-08-24_23-25-27,2026-08-25
1.0,1.0,1.0,1.0,0.06369426751592357,0.0,0.0,0.0,0.0,1.0,1.0,0.5484619140625,0.0919189453125,0.018310546875,-0.01531982421875,-0.01177978515625,0.006134033203125,N,3,2026-08-24_23-25-27,2026-08-25
1.0,0.987929993964997,0.9842342342342343,1.0,0.0,0.0,0.0,0.0,0.0,1.0,1.0,0.550048828125,0.0831298828125,0.010986328125,-0.011871337890625,-0.001861572265625,0.00299072265625,N,3,2026-08-24_23-25-27,2026-08-25
1.0,0.9975859987929994,0.9887387387387387,1.0,0.025477707006369428,0.0,0.0,0.0,0.0,1.0,1.0,0.551025390625,0.08740234375,0.0126953125,-0.02142333984375,-0.00152587890625,3.0517578125e-05,N,3,2026-08-24_23-25-27,2026-08-25
1.0,0.9951719975859988,0.990990990990991,1.0,0.0,0.0,0.0,0.0,0.0,1.0,1.0,0.5589599609375,0.0908203125,0.0255126953125,-0.010345458984375,-0.002471923828125,0.005584716796875,N,3,2026-08-24_23-25-27,2026-08-25
1.0,0.9855159927579964,0.972972972972973,1.0,0.0,0.0,0.0,0.0,0.0,1.0,1.0,0.5513916015625,0.0771484375,0.019287109375,-0.012603759765625,-0.0137939453125,0.002044677734375,N,3,2026-08-24_23-25-27,2026-08-25
1.0,0.9806879903439951,0.9684684684684685,1.0,0.0,0.0,0.0,1.0,0.0,1.0,1.0,0.5533447265625,0.0799560546875,-0.012939453125,-0.012481689453125,-0.02081298828125,-0.000213623046875,N,4,2026-08-24_23-25-27,2026-08-25
1.0,0.9939649969824985,0.9774774774774775,1.0,0.12738853503184713,0.0,0.0,1.0,0.0,1.0,1.0,0.557861328125,0.0830078125,-0.0098876953125,-0.014404296875,-0.009552001953125,-0.003570556640625,N,4,2026-08-24_23-25-27,2026-08-25
1.0,1.0,0.9977477477477478,1.0,0.11464968152866242,0.0,0.0,1.0,0.0,1.0,1.0,0.5635986328125,0.085693359375,-0.0081787109375,-0.015472412109375,-0.01519775390625,-0.000823974609375,N,4,2026-08-24_23-25-27,2026-08-25
1.0,0.9806879903439951,0.9707207207207207,1.0,0.0,0.0,0.0,1.0,1.0,1.0,1.0,0.5545654296875,0.0770263671875,-0.0189208984375,-0.01531982421875,-0.022003173828125,-0.004638671875,N,4,2026-08-24_23-25-27,2026-08-25
1.0,0.9806879903439951,1.0,1.0,0.0,0.0,0.0,1.0,0.0,1.0,1.0,0.5540771484375,0.085693359375,-0.02099609375,-0.0130615234375,-0.021270751953125,-0.007781982421875,N,4,2026-08-24_23-25-27,2026-08-25
1.0,0.9806879903439951,0.9752252252252253,1.0,0.0,0.0,0.0,1.0,0.0,1.0,1.0,0.556884765625,0.0850830078125,-0.0208740234375,-0.013153076171875,-0.013275146484375,-0.00775146484375,N,4,2026-08-24_23-25-27,2026-08-25
1.0,0.9927579963789982,0.9887387387387387,1.0,0.03821656050955414,0.0,0.0,1.0,0.0,1.0,1.0,0.5513916015625,0.0887451171875,-0.0164794921875,-0.013397216796875,-0.001556396484375,-0.005767822265625,N,4,2026-08-24_23-25-27,2026-08-25
1.0,0.9915509957754979,0.9842342342342343,1.0,0.0,0.0,0.0,1.0,0.0,1.0,1.0,0.559326171875,0.086181640625,-0.009765625,-0.013153076171875,0.001708984375,-0.00457763671875,N,4,2026-08-24_23-25-27,2026-08-25
1.0,0.9915509957754979,0.9864864864864865,1.0,0.03821656050955414,0.0,0.0,1.0,0.0,1.0,1.0,0.5545654296875,0.0865478515625,-0.007080078125,-0.012237548828125,-0.009124755859375,-0.004638671875,N,4,2026-08-24_23-25-27,2026-08-25
1.0,0.9927579963789982,0.9842342342342343,1.0,0.0,0.0,0.0,1.0,0.0,1.0,1.0,0.5489501953125,0.0869140625,-0.005859375,-0.0107421875,-0.01226806640625,-0.0030517578125,N,4,2026-08-24_23-25-27,2026-08-25
1.0,0.9843089921544961,0.9864864864864865,1.0,0.0,0.0,0.0,1.0,0.0,1.0,1.0,0.5499267578125,0.0855712890625,-0.002685546875,-0.011749267578125,-0.0067138671875,-0.0040283203125,N,4,2026-08-24_23-25-27,2026-08-25
1.0,0.9867229933614967,1.0,1.0,0.0,0.0,0.0,1.0,0.0,1.0,1.0,0.54638671875,0.090087890625,-0.0059814453125,-0.00860595703125,-0.0006103515625,-0.003814697265625,N,4,2026-08-24_23-25-27,2026-08-25
1.0,0.9927579963789982,0.990990990990991,1.0,0.0,0.0,0.0,1.0,0.0,1.0,1.0,0.5513916015625,0.08642578125,0.00341796875,-0.00396728515625,-0.006072998046875,-0.0013427734375,N,4,2026-08-24_23-25-27,2026-08-25
1.0,0.987929993964997,0.9932432432432432,1.0,0.0,0.0,0.0,1.0,0.0,1.0,1.0,0.5487060546875,0.0843505859375,-0.00244140625,-0.008880615234375,-0.008392333984375,-0.001953125,N,4,2026-08-24_23-25-27,2026-08-25
1.0,0.9855159927579964,0.9774774774774775,1.0,0.0,0.0,0.0,1.0,0.0,1.0,1.0,0.551025390625,0.0919189453125,0.000732421875,-0.01373291015625,-0.015625,0.001373291015625,N,4,2026-08-24_23-25-27,2026-08-25
1.0,0.9818949909474954,0.972972972972973,1.0,0.0,0.0,0.0,1.0,0.0,1.0,1.0,0.5455322265625,0.096435546875,0.0029296875,-0.01800537109375,-0.021484375,0.0062255859375,N,4,2026-08-24_23-25-27,2026-08-25
1.0,0.9867229933614967,0.9797297297297297,1.0,0.012738853503184714,0.0,0.0,1.0,1.0,1.0,1.0,0.5474853515625,0.09912109375,-0.003173828125,-0.005035400390625,-0.017791748046875,0.009918212890625,N,4,2026-08-24_23-25-27,2026-08-25
1.0,0.9939649969824985,1.0,1.0,0.0,0.0,0.0,1.0,0.0,1.0,1.0,0.555419921875,0.078125,-0.014892578125,-0.002288818359375,-0.016845703125,0.0042724609375,N,4,2026-08-24_23-25-27,2026-08-25
1.0,0.9831019915509958,0.9774774774774775,1.0,0.012738853503184714,0.0,0.0,1.0,1.0,1.0,1.0,0.5462646484375,0.094970703125,-0.0107421875,-0.011993408203125,-0.012725830078125,0.0062255859375,N,4,2026-08-24_23-25-27,2026-08-25
1.0,0.987929993964997,0.990990990990991,1.0,0.0,0.0,0.0,0.0,0.0,1.0,1.0,0.55517578125,0.0894775390625,-0.01806640625,-0.01287841796875,-0.011444091796875,0.01092529296875,N,4,2026-08-24_23-25-27,2026-08-25
1.0,1.0,1.0,1.0,0.025477707006369428,0.0,0.0,1.0,0.0,1.0,1.0,0.5577392578125,0.0880126953125,-0.01416015625,-0.027008056640625,-0.01422119140625,0.007232666015625,N,4,2026-08-24_23-25-27,2026-08-25
1.0,0.9951719975859988,0.9774774774774775,1.0,0.0,0.0,0.0,1.0,0.0,1.0,1.0,0.555908203125,0.093505859375,-0.0115966796875,-0.01470947265625,-0.01348876953125,0.010009765625,N,4,2026-08-24_23-25-27,2026-08-25
1.0,0.996378998189499,1.0,1.0,0.0,0.0,0.0,1.0,0.0,1.0,1.0,0.5557861328125,0.0755615234375,-0.0155029296875,-0.00750732421875,-0.016632080078125,0.00811767578125,N,4,2026-08-24_23-25-27,2026-08-25
1.0,0.9806879903439951,0.990990990990991,1.0,0.0,0.0,0.0,1.0,0.0,1.0,1.0,0.5516357421875,0.0831298828125,-0.0198974609375,-0.00982666015625,-0.00860595703125,0.00299072265625,N,4,2026-08-24_23-25-27,2026-08-25
1.0,0.9915509957754979,0.9684684684684685,1.0,0.0,0.0,0.0,1.0,1.0,1.0,1.0,0.5565185546875,0.083251953125,-0.012939453125,-0.0078125,-0.012420654296875,0.005950927734375,N,4,2026-08-24_23-25-27,2026-08-25
1.0,0.9806879903439951,0.9977477477477478,1.0,0.0,0.0,0.0,1.0,0.0,1.0,1.0,0.5615234375,0.0830078125,-0.009033203125,-0.01983642578125,-0.01605224609375,0.004852294921875,N,4,2026-08-24_23-25-27,2026-08-25
1.0,0.9746529873264936,0.9977477477477478,1.0,0.012738853503184714,0.0,0.0,1.0,1.0,1.0,1.0,0.553955078125,0.0853271484375,-0.011962890625,-0.013580322265625,-0.01519775390625,0.00421142578125,N,4,2026-08-24_23-25-27,2026-08-25
1.0,0.987929993964997,0.9774774774774775,1.0,0.0,0.0,0.0,1.0,0.0,1.0,1.0,0.55224609375,0.08447265625,-0.010986328125,-0.00469970703125,-0.00701904296875,0.001373291015625,N,4,2026-08-24_23-25-27,2026-08-25
1.0,0.9770669885334943,0.9752252252252253,1.0,0.0,0.0,0.0,1.0,0.0,1.0,1.0,0.5537109375,0.0870361328125,-0.0150146484375,-0.0008544921875,-0.00384521484375,-0.000396728515625,N,4,2026-08-24_23-25-27,2026-08-25
1.0,0.9746529873264936,0.9977477477477478,1.0,0.03821656050955414,0.0,0.0,1.0,0.0,1.0,1.0,0.55078125,0.0804443359375,-0.01611328125,-0.005767822265625,-0.005218505859375,-0.000274658203125,N,4,2026-08-24_23-25-27,2026-08-25
1.0,0.9867229933614967,0.9864864864864865,1.0,0.012738853503184714,0.0,0.0,1.0,0.0,1.0,1.0,0.555908203125,0.0877685546875,-0.0059814453125,-0.00946044921875,-0.0078125,0.00201416015625,N,4,2026-08-24_23-25-27,2026-08-25
1.0,0.9891369945684972,0.9707207207207207,1.0,0.0,0.0,0.0,1.0,0.0,1.0,1.0,0.553955078125,0.08349609375,-0.0059814453125,-0.004486083984375,-0.010101318359375,0.002960205078125,N,4,2026-08-24_23-25-27,2026-08-25
1.0,0.9818949909474954,0.9662162162162162,1.0,0.0,0.0,0.0,1.0,0.0,1.0,1.0,0.5504150390625,0.0860595703125,-0.0069580078125,-0.0008544921875,-0.007659912109375,-0.0003662109375,N,4,2026-08-24_23-25-27,2026-08-25
1.0,0.9867229933614967,0.9774774774774775,1.0,0.0,0.0,0.0,1.0,0.0,1.0,1.0,0.5460205078125,0.082763671875,-0.01123046875,0.003326416015625,0.005126953125,-0.005859375,N,4,2026-08-24_23-25-27,2026-08-25
1.0,0.9915509957754979,0.9752252252252253,1.0,0.06369426751592357,0.0,0.0,1.0,0.0,1.0,1.0,0.5531005859375,0.0869140625,-0.0137939453125,0.000396728515625,0.00494384765625,-0.00616455078125,N,4,2026-08-24_23-25-27,2026-08-25
1.0,0.9806879903439951,0.9842342342342343,1.0,0.0,0.0,0.0,1.0,0.0,1.0,1.0,0.5592041015625,0.0919189453125,-0.0078125,-0.0001220703125,-0.00970458984375,0.0008544921875,N,4,2026-08-24_23-25-27,2026-08-25
1.0,0.9975859987929994,0.9752252252252253,1.0,0.0,0.0,0.0,1.0,0.0,1.0,1.0,0.554931640625,0.0794677734375,-0.0152587890625,-0.00469970703125,-0.024017333984375,0.003021240234375,N,4,2026-08-24_23-25-27,2026-08-25
1.0,0.9806879903439951,0.9932432432432432,1.0,0.0,0.0,0.0,1.0,0.0,1.0,1.0,0.5482177734375,0.083984375,-0.014892578125,-0.00933837890625,-0.0234375,-0.000885009765625,N,4,2026-08-24_23-25-27,2026-08-25
1.0,0.9927579963789982,0.990990990990991,1.0,0.0,0.0,0.0,1.0,0.0,1.0,1.0,0.547607421875,0.0904541015625,-0.0184326171875,-0.0137939453125,-0.015228271484375,0.001129150390625,N,4,2026-08-24_23-25-27,2026-08-25
1.0,0.9915509957754979,0.9797297297297297,1.0,0.012738853503184714,0.0,0.0,1.0,0.0,1.0,1.0,0.5545654296875,0.0943603515625,-0.0125732421875,-0.0184326171875,-0.012420654296875,0.00579833984375,N,4,2026-08-24_23-25-27,2026-08-25
1.0,0.9034399517199758,0.8581081081081081,1.0,0.8535031847133758,0.0,1.0,1.0,1.0,1.0,1.0,0.5487060546875,0.09814453125,-0.091796875,-0.020538330078125,-3.0517578125e-05,0.00469970703125,O,0,2026-08-24_23-25-27,2026-08-25
1.0,0.899818949909475,0.8558558558558559,1.0,0.8789808917197452,0.0,1.0,1.0,1.0,1.0,1.0,0.539306640625,0.0928955078125,-0.09423828125,-0.025634765625,-0.00250244140625,0.00518798828125,O,0,2026-08-24_23-25-27,2026-08-25
1.0,0.8986119493059747,0.8536036036036037,1.0,0.8407643312101911,0.0,1.0,1.0,1.0,1.0,1.0,0.543701171875,0.0953369140625,-0.0909423828125,-0.019775390625,-0.004638671875,0.0072021484375,O,0,2026-08-24_23-25-27,2026-08-25
1.0,0.9070609535304768,0.8918918918918919,0.9247311827956989,0.8280254777070064,0.0,1.0,1.0,1.0,1.0,1.0,0.540283203125,0.0950927734375,-0.091796875,-0.01739501953125,-0.003570556640625,0.00567626953125,O,0,2026-08-24_23-25-27,2026-08-25
1.0,0.9022329511164756,0.8265765765765766,0.956989247311828,0.9299363057324841,0.0,1.0,1.0,1.0,1.0,1.0,0.5440673828125,0.096435546875,-0.089111328125,-0.011383056640625,-0.003631591796875,0.006256103515625,O,0,2026-08-24_23-25-27,2026-08-25
1.0,0.9022329511164756,0.8693693693693694,0.9086021505376344,0.8662420382165605,0.0,1.0,1.0,1.0,1.0,1.0,0.5447998046875,0.0914306640625,-0.0919189453125,-0.013885498046875,-0.007537841796875,0.00482177734375,O,0,2026-08-24_23-25-27,2026-08-25
1.0,0.8805069402534701,0.8738738738738738,1.0,0.802547770700637,0.0,1.0,1.0,1.0,1.0,1.0,0.5421142578125,0.0870361328125,-0.0865478515625,-0.017913818359375,-0.0084228515625,0.0042724609375,O,0,2026-08-24_23-25-27,2026-08-25
1.0,0.9106819553409776,0.8738738738738738,1.0,0.89171974522293,0.0,1.0,1.0,1.0,1.0,1.0,0.540283203125,0.089111328125,-0.0938720703125,-0.02203369140625,-0.01141357421875,0.00494384765625,O,0,2026-08-24_23-25-27,2026-08-25
1.0,0.899818949909475,0.8918918918918919,1.0,0.89171974522293,0.0,1.0,1.0,1.0,1.0,1.0,0.537841796875,0.093017578125,-0.0926513671875,-0.022064208984375,-0.0103759765625,0.00543212890625,O,0,2026-08-24_23-25-27,2026-08-25
1.0,0.8853349426674714,0.8355855855855856,0.9946236559139785,0.9299363057324841,0.0,1.0,1.0,1.0,1.0,1.0,0.5362548828125,0.09326171875,-0.0958251953125,-0.018402099609375,-0.00775146484375,0.006622314453125,O,0,2026-08-24_23-25-27,2026-08-25
1.0,0.8974049487024743,0.8648648648648649,1.0,0.9044585987261147,0.0,1.0,1.0,1.0,1.0,1.0,0.5428466796875,0.0889892578125,-0.0908203125,-0.014068603515625,-0.008026123046875,0.0068359375,O,0,2026-08-24_23-25-27,2026-08-25
1.0,0.9106819553409776,0.8986486486486487,1.0,1.0,0.0,1.0,1.0,1.0,1.0,1.0,0.539794921875,0.0908203125,-0.0946044921875,-0.0137939453125,-0.009979248046875,0.00537109375,O,0,2026-08-24_23-25-27,2026-08-25
1.0,0.9022329511164756,0.8693693693693694,0.9838709677419355,0.8152866242038217,0.0,1.0,1.0,1.0,1.0,1.0,0.5390625,0.0938720703125,-0.0919189453125,-0.013427734375,-0.011322021484375,0.0068359375,O,0,2026-08-24_23-25-27,2026-08-25
1.0,0.9022329511164756,0.8693693693693694,0.989247311827957,0.89171974522293,0.0,1.0,1.0,1.0,1.0,1.0,0.54150390625,0.091552734375,-0.0947265625,-0.0133056640625,-0.005767822265625,0.0081787109375,O,0,2026-08-24_23-25-27,2026-08-25
1.0,0.9010259505129753,0.8648648648648649,1.0,0.8789808917197452,0.0,1.0,1.0,1.0,1.0,1.0,0.54248046875,0.0953369140625,-0.0926513671875,-0.0203857421875,-0.00634765625,0.006927490234375,O,0,2026-08-24_23-25-27,2026-08-25
1.0,0.9034399517199758,0.8536036036036037,1.0,0.9044585987261147,0.0,1.0,1.0,1.0,1.0,1.0,0.543212890625,0.0916748046875,-0.091064453125,-0.019683837890625,-0.0054931640625,0.007080078125,O,0,2026-08-24_23-25-27,2026-08-25
1.0,0.8986119493059747,0.8378378378378378,1.0,0.8535031847133758,0.0,1.0,1.0,1.0,1.0,1.0,0.541748046875,0.093994140625,-0.095703125,-0.019744873046875,-0.00579833984375,0.005096435546875,O,0,2026-08-24_23-25-27,2026-08-25
1.0,0.8986119493059747,0.8693693693693694,1.0,0.8152866242038217,0.0,1.0,1.0,1.0,1.0,1.0,0.5458984375,0.0911865234375,-0.093505859375,-0.016143798828125,-0.00323486328125,0.0042724609375,O,0,2026-08-24_23-25-27,2026-08-25
1.0,0.8913699456849729,0.8648648648648649,1.0,0.8152866242038217,0.0,1.0,1.0,1.0,1.0,1.0,0.5478515625,0.0892333984375,-0.0926513671875,-0.012939453125,-0.003204345703125,0.003875732421875,O,0,2026-08-24_23-25-27,2026-08-25
1.0,0.9034399517199758,0.8671171171171171,0.956989247311828,0.8407643312101911,0.0,1.0,1.0,1.0,1.0,1.0,0.544677734375,0.0849609375,-0.0947265625,-0.016754150390625,-0.00439453125,0.002471923828125,O,0,2026-08-24_23-25-27,2026-08-25
1.0,0.899818949909475,0.8400900900900901,0.967741935483871,0.8152866242038217,0.0,1.0,1.0,1.0,1.0,1.0,0.5418701171875,0.087890625,-0.0919189453125,-0.02130126953125,-0.004547119140625,0.00079345703125,O,0,2026-08-24_23-25-27,2026-08-25
1.0,0.899818949909475,0.8671171171171171,0.9731182795698925,0.8152866242038217,0.0,1.0,1.0,1.0,1.0,1.0,0.543701171875,0.089111328125,-0.0877685546875,-0.02008056640625,-0.00885009765625,0.001983642578125,O,0,2026-08-24_23-25-27,2026-08-25
1.0,0.884127942063971,0.8378378378378378,1.0,0.8789808917197452,0.0,1.0,1.0,1.0,1.0,1.0,0.5394287109375,0.0889892578125,-0.0924072265625,-0.017730712890625,-0.00927734375,0.0013427734375,O,0,2026-08-24_23-25-27,2026-08-25
1.0,0.9155099577549789,0.8648648648648649,1.0,0.9681528662420382,0.0,1.0,1.0,1.0,1.0,1.0,0.5399169921875,0.0865478515625,-0.09326171875,-0.01861572265625,-0.0064697265625,-0.0001220703125,O,0,2026-08-24_23-25-27,2026-08-25
1.0,0.9203379601689801,0.8963963963963963,1.0,0.8280254777070064,0.0,1.0,1.0,1.0,1.0,1.0,0.538818359375,0.0892333984375,-0.0960693359375,-0.020263671875,-0.0067138671875,-0.000518798828125,O,0,2026-08-24_23-25-27,2026-08-25
1.0,0.899818949909475,0.8513513513513513,1.0,0.8152866242038217,0.0,1.0,1.0,1.0,1.0,1.0,0.54052734375,0.096435546875,-0.0897216796875,-0.02117919921875,-0.00677490234375,0.000579833984375,O,0,2026-08-24_23-25-27,2026-08-25
1.0,0.9010259505129753,0.8626126126126126,1.0,0.8535031847133758,0.0,1.0,1.0,1.0,1.0,1.0,0.5413818359375,0.0953369140625,-0.0887451171875,-0.018280029296875,-0.006927490234375,0.001678466796875,O,0,2026-08-24_23-25-27,2026-08-25
1.0,0.8974049487024743,0.8761261261261262,1.0,0.9426751592356688,0.0,1.0,1.0,1.0,1.0,1.0,0.5386962890625,0.095458984375,-0.095458984375,-0.017791748046875,-0.007080078125,0.001495361328125,O,0,2026-08-24_23-25-27,2026-08-25
1.0,0.8792999396499698,0.8243243243243243,0.946236559139785,0.8152866242038217,0.0,1.0,1.0,1.0,1.0,1.0,0.5396728515625,0.0931396484375,-0.0931396484375,-0.01678466796875,-0.00335693359375,0.001495361328125,O,0,2026-08-24_23-25-27,2026-08-25
1.0,0.8925769462884732,0.8333333333333334,0.967741935483871,0.8152866242038217,0.0,1.0,1.0,1.0,1.0,1.0,0.5416259765625,0.093994140625,-0.091064453125,-0.018707275390625,-0.00408935546875,0.00323486328125,O,0,2026-08-24_23-25-27,2026-08-25
1.0,0.8865419432709717,0.8445945945945946,0.9408602150537635,0.8152866242038217,0.0,1.0,1.0,1.0,1.0,1.0,0.5447998046875,0.0966796875,-0.091064453125,-0.0167236328125,-0.00616455078125,0.004058837890625,O,0,2026-08-24_23-25-27,2026-08-25
1.0,0.8877489438744719,0.8355855855855856,1.0,0.89171974522293,0.0,1.0,1.0,1.0,1.0,1.0,0.5400390625,0.0946044921875,-0.08740234375,-0.01641845703125,-0.00738525390625,0.004150390625,O,0,2026-08-24_23-25-27,2026-08-25
1.0,0.899818949909475,0.8648648648648649,0.989247311827957,0.8789808917197452,0.0,1.0,1.0,1.0,1.0,1.0,0.541259765625,0.093017578125,-0.0845947265625,-0.01312255859375,-0.006988525390625,0.00341796875,O,0,2026-08-24_23-25-27,2026-08-25
1.0,0.896197948098974,0.8603603603603603,0.956989247311828,0.9299363057324841,0.0,1.0,1.0,1.0,1.0,1.0,0.54443359375,0.0947265625,-0.0860595703125,-0.014984130859375,-0.00732421875,0.003631591796875,O,0,2026-08-24_23-25-27,2026-08-25
1.0,0.9022329511164756,1.0,1.0,0.8407643312101911,0.0,1.0,1.0,1.0,1.0,1.0,0.544189453125,0.093994140625,-0.0865478515625,-0.016082763671875,-0.01019287109375,0.006988525390625,O,0,2026-08-24_23-25-27,2026-08-25
1.0,0.8865419432709717,1.0,0.989247311827957,0.8152866242038217,0.0,1.0,1.0,1.0,1.0,1.0,0.5413818359375,0.088134765625,-0.097900390625,-0.017669677734375,-0.01251220703125,0.00628662109375,O,0,2026-08-24_23-25-27,2026-08-25
1.0,0.9022329511164756,1.0,1.0,0.8789808917197452,0.0,1.0,1.0,1.0,1.0,1.0,0.542724609375,0.093505859375,-0.092529296875,-0.019256591796875,-0.0137939453125,0.005950927734375,O,0,2026-08-24_23-25-27,2026-08-25
1.0,0.8974049487024743,1.0,1.0,0.8535031847133758,0.0,1.0,1.0,1.0,1.0,1.0,0.5435791015625,0.0972900390625,-0.1005859375,-0.0196533203125,-0.010711669921875,0.005126953125,O,0,2026-08-24_23-25-27,2026-08-25
1.0,0.8949909474954737,1.0,1.0,0.8407643312101911,0.0,1.0,1.0,1.0,1.0,1.0,0.5364990234375,0.0885009765625,-0.100830078125,-0.017547607421875,-0.0059814453125,0.005645751953125,O,0,2026-08-24_23-25-27,2026-08-25
1.0,0.9034399517199758,1.0,1.0,0.89171974522293,0.0,1.0,1.0,1.0,1.0,1.0,0.543212890625,0.0894775390625,-0.0926513671875,-0.016448974609375,-0.00543212890625,0.005523681640625,O,0,2026-08-24_23-25-27,2026-08-25
1.0,0.9010259505129753,0.9662162162162162,1.0,1.0,0.0,1.0,1.0,1.0,1.0,0.0,0.5447998046875,0.0782470703125,-0.089599609375,-0.018310546875,-0.0081787109375,0.00079345703125,O,1,2026-08-24_23-25-27,2026-08-25
1.0,0.8986119493059747,0.9662162162162162,1.0,1.0,0.0,1.0,1.0,1.0,1.0,0.0,0.5445556640625,0.0777587890625,-0.09375,-0.017120361328125,-0.008697509765625,0.001190185546875,O,1,2026-08-24_23-25-27,2026-08-25
1.0,0.9106819553409776,0.9617117117117117,1.0,1.0,0.0,1.0,1.0,1.0,1.0,0.0,0.54541015625,0.0811767578125,-0.08984375,-0.011962890625,-0.007171630859375,0.0015869140625,O,1,2026-08-24_23-25-27,2026-08-25
1.0,0.9094749547374774,0.9774774774774775,1.0,1.0,0.0,1.0,1.0,1.0,1.0,0.0,0.551513671875,0.076904296875,-0.088623046875,-0.013458251953125,-0.012237548828125,0.003753662109375,O,1,2026-08-24_23-25-27,2026-08-25
1.0,0.9046469523234761,0.9481981981981982,1.0,1.0,0.0,1.0,1.0,1.0,1.0,0.0,0.5445556640625,0.0787353515625,-0.0916748046875,-0.017242431640625,-0.00958251953125,0.0010986328125,O,1,2026-08-24_23-25-27,2026-08-25
1.0,0.9022329511164756,0.9527027027027027,1.0,1.0,0.0,1.0,1.0,1.0,1.0,0.0,0.5460205078125,0.07666015625,-0.0830078125,-0.02081298828125,-0.011260986328125,0.001556396484375,O,1,2026-08-24_23-25-27,2026-08-25
1.0,0.9022329511164756,0.9369369369369369,1.0,1.0,0.0,1.0,1.0,1.0,1.0,0.0,0.54296875,0.0789794921875,-0.0892333984375,-0.02044677734375,-0.011505126953125,0.00299072265625,O,1,2026-08-24_23-25-27,2026-08-25
1.0,0.9022329511164756,0.9436936936936937,1.0,1.0,0.0,1.0,1.0,1.0,1.0,0.0,0.5382080078125,0.083740234375,-0.0889892578125,-0.01702880859375,-0.008056640625,0.003875732421875,O,1,2026-08-24_23-25-27,2026-08-25
1.0,0.9070609535304768,0.972972972972973,1.0,1.0,0.0,1.0,1.0,1.0,1.0,0.0,0.5450439453125,0.0833740234375,-0.0877685546875,-0.013580322265625,-0.010284423828125,0.0054931640625,O,1,2026-08-24_23-25-27,2026-08-25
1.0,0.9034399517199758,0.9436936936936937,1.0,1.0,0.0,1.0,1.0,1.0,1.0,0.0,0.5458984375,0.0789794921875,-0.090087890625,-0.011505126953125,-0.0103759765625,0.006683349609375,O,1,2026-08-24_23-25-27,2026-08-25
1.0,0.9022329511164756,0.9504504504504504,1.0,1.0,0.0,1.0,1.0,1.0,1.0,0.0,0.5460205078125,0.080322265625,-0.08447265625,-0.01336669921875,-0.01116943359375,0.00628662109375,O,1,2026-08-24_23-25-27,2026-08-25
1.0,0.8974049487024743,0.9391891891891891,1.0,1.0,0.0,1.0,1.0,1.0,1.0,0.0,0.5462646484375,0.078857421875,-0.0926513671875,-0.016357421875,-0.013641357421875,0.007598876953125,O,1,2026-08-24_23-25-27,2026-08-25
1.0,0.8949909474954737,0.9572072072072072,1.0,1.0,0.0,1.0,1.0,1.0,1.0,0.0,0.54736328125,0.07666015625,-0.083251953125,-0.0157470703125,-0.01275634765625,0.007080078125,O,1,2026-08-24_23-25-27,2026-08-25
1.0,0.9034399517199758,0.9279279279279279,1.0,1.0,0.0,1.0,1.0,1.0,1.0,0.0,0.544189453125,0.0740966796875,-0.0941162109375,-0.0174560546875,-0.01727294921875,0.003997802734375,O,1,2026-08-24_23-25-27,2026-08-25
1.0,0.9034399517199758,0.9459459459459459,1.0,1.0,0.0,1.0,1.0,1.0,1.0,0.0,0.540283203125,0.0726318359375,-0.095458984375,-0.016357421875,-0.01202392578125,0.00372314453125,O,1,2026-08-24_23-25-27,2026-08-25
1.0,0.8901629450814725,0.9684684684684685,1.0,1.0,0.0,1.0,1.0,1.0,1.0,0.0,0.54736328125,0.0848388671875,-0.09521484375,-0.0166015625,-0.010772705078125,0.005157470703125,O,1,2026-08-24_23-25-27,2026-08-25
1.0,0.9010259505129753,0.9527027027027027,1.0,1.0,0.0,1.0,1.0,1.0,1.0,0.0,0.542724609375,0.0809326171875,-0.0906982421875,-0.0147705078125,-0.003387451171875,0.00579833984375,O,1,2026-08-24_23-25-27,2026-08-25
1.0,0.9034399517199758,0.9369369369369369,1.0,1.0,0.0,1.0,1.0,1.0,1.0,0.0,0.544677734375,0.07666015625,-0.0882568359375,-0.01190185546875,-0.003814697265625,0.00628662109375,O,1,2026-08-24_23-25-27,2026-08-25
1.0,0.899818949909475,0.9436936936936937,1.0,1.0,0.0,1.0,1.0,1.0,1.0,0.0,0.54638671875,0.07666015625,-0.0831298828125,-0.0067138671875,-0.006561279296875,0.005523681640625,O,1,2026-08-24_23-25-27,2026-08-25
1.0,0.9070609535304768,0.963963963963964,1.0,1.0,0.0,1.0,1.0,1.0,1.0,0.0,0.5440673828125,0.0733642578125,-0.0865478515625,-0.008880615234375,-0.008697509765625,0.00482177734375,O,1,2026-08-24_23-25-27,2026-08-25
1.0,0.896197948098974,0.9481981981981982,1.0,1.0,0.0,1.0,1.0,1.0,1.0,0.0,0.54296875,0.0780029296875,-0.0892333984375,-0.01385498046875,-0.006134033203125,0.00457763671875,O,1,2026-08-24_23-25-27,2026-08-25
1.0,0.8986119493059747,0.918918918918919,1.0,1.0,0.0,1.0,1.0,1.0,1.0,0.0,0.5418701171875,0.07763671875,-0.087890625,-0.014404296875,-0.010772705078125,0.007781982421875,O,1,2026-08-24_23-25-27,2026-08-25
1.0,0.9022329511164756,0.9391891891891891,1.0,1.0,0.0,1.0,1.0,1.0,1.0,0.0,0.5438232421875,0.079833984375,-0.092041015625,-0.0146484375,-0.01092529296875,0.00933837890625,O,1,2026-08-24_23-25-27,2026-08-25
1.0,0.9094749547374774,0.9774774774774775,1.0,1.0,0.0,1.0,1.0,1.0,1.0,0.0,0.5455322265625,0.077392578125,-0.1007080078125,-0.0135498046875,-0.011871337890625,0.008056640625,O,1,2026-08-24_23-25-27,2026-08-25
1.0,0.899818949909475,0.954954954954955,1.0,1.0,0.0,1.0,1.0,1.0,1.0,0.0,0.5413818359375,0.0732421875,-0.1004638671875,-0.010467529296875,-0.011627197265625,0.008270263671875,O,1,2026-08-24_23-25-27,2026-08-25
1.0,0.9058539529269765,0.9527027027027027,1.0,1.0,0.0,1.0,1.0,1.0,1.0,0.0,0.5452880859375,0.0755615234375,-0.0897216796875,-0.012725830078125,-0.01123046875,0.008209228515625,O,1,2026-08-24_23-25-27,2026-08-25
1.0,0.899818949909475,0.9481981981981982,1.0,1.0,0.0,1.0,1.0,1.0,1.0,0.0,0.55126953125,0.0782470703125,-0.09326171875,-0.018310546875,-0.01531982421875,0.00933837890625,O,1,2026-08-24_23-25-27,2026-08-25
1.0,0.9034399517199758,0.954954954954955,1.0,1.0,0.0,1.0,1.0,1.0,1.0,0.0,0.54638671875,0.072265625,-0.0947265625,-0.021087646484375,-0.0147705078125,0.009521484375,O,1,2026-08-24_23-25-27,2026-08-25
1.0,0.9010259505129753,0.9391891891891891,1.0,1.0,0.0,1.0,1.0,1.0,1.0,0.0,0.5479736328125,0.0732421875,-0.0931396484375,-0.0166015625,-0.011566162109375,0.006927490234375,O,1,2026-08-24_23-25-27,2026-08-25
1.0,0.899818949909475,0.9414414414414415,1.0,1.0,0.0,1.0,1.0,1.0,1.0,0.0,0.5440673828125,0.0732421875,-0.0904541015625,-0.0135498046875,-0.01434326171875,0.00433349609375,O,1,2026-08-24_23-25-27,2026-08-25
1.0,0.899818949909475,0.9527027027027027,1.0,1.0,0.0,1.0,1.0,1.0,1.0,0.0,0.5440673828125,0.07470703125,-0.0994873046875,-0.010650634765625,-0.00750732421875,0.004547119140625,O,1,2026-08-24_23-25-27,2026-08-25
1.0,0.9118889559444779,0.9391891891891891,1.0,0.9936305732484076,0.0,1.0,1.0,1.0,1.0,0.0,0.5460205078125,0.07470703125,-0.0938720703125,-0.01971435546875,-0.010772705078125,0.00653076171875,O,1,2026-08-24_23-25-27,2026-08-25
1.0,0.8986119493059747,0.918918918918919,1.0,1.0,0.0,1.0,1.0,1.0,1.0,0.0,0.54541015625,0.0767822265625,-0.100830078125,-0.021514892578125,-0.007659912109375,0.007354736328125,O,1,2026-08-24_23-25-27,2026-08-25
1.0,0.9046469523234761,0.9572072072072072,1.0,1.0,0.0,1.0,1.0,1.0,1.0,0.0,0.5423583984375,0.074951171875,-0.0989990234375,-0.02142333984375,-0.002044677734375,0.0040283203125,O,1,2026-08-24_23-25-27,2026-08-25
1.0,0.9034399517199758,0.9481981981981982,1.0,1.0,0.0,1.0,1.0,1.0,1.0,0.0,0.5457763671875,0.076416015625,-0.0941162109375,-0.017486572265625,-0.003662109375,0.002349853515625,O,1,2026-08-24_23-25-27,2026-08-25
1.0,0.9034399517199758,0.9527027027027027,1.0,1.0,0.0,1.0,1.0,1.0,1.0,0.0,0.5455322265625,0.0755615234375,-0.0963134765625,-0.0133056640625,0.000885009765625,0.002105712890625,O,1,2026-08-24_23-25-27,2026-08-25
1.0,0.9034399517199758,0.9527027027027027,1.0,1.0,0.0,1.0,1.0,1.0,1.0,0.0,0.54296875,0.071044921875,-0.089111328125,-0.0135498046875,-0.001220703125,0.00244140625,O,1,2026-08-24_23-25-27,2026-08-25
1.0,0.8925769462884732,0.9346846846846847,1.0,1.0,0.0,1.0,1.0,1.0,1.0,0.0,0.5457763671875,0.0721435546875,-0.0859375,-0.014373779296875,-0.005035400390625,0.001556396484375,O,1,2026-08-24_23-25-27,2026-08-25
1.0,0.9022329511164756,0.9527027027027027,1.0,1.0,0.0,1.0,1.0,1.0,1.0,0.0,0.545654296875,0.07275390625,-0.085693359375,-0.017425537109375,-0.007232666015625,0.0030517578125,O,1,2026-08-24_23-25-27,2026-08-25
1.0,0.9034399517199758,0.9504504504504504,1.0,1.0,0.0,1.0,1.0,1.0,1.0,0.0,0.5438232421875,0.07861328125,-0.08251953125,-0.018463134765625,-0.00958251953125,0.003265380859375,O,1,2026-08-24_23-25-27,2026-08-25
1.0,0.9106819553409776,0.9054054054054054,1.0,1.0,0.0,1.0,1.0,1.0,1.0,0.0,0.5479736328125,0.060302734375,-0.1072998046875,-0.0146484375,-0.01971435546875,0.007354736328125,O,2,2026-08-24_23-25-27,2026-08-25
1.0,0.9167169583584792,0.8963963963963963,1.0,1.0,0.0,1.0,1.0,1.0,1.0,0.0,0.54931640625,0.0631103515625,-0.10986328125,-0.02197265625,-0.0135498046875,0.006927490234375,O,2,2026-08-24_23-25-27,2026-08-25
1.0,0.9106819553409776,0.8896396396396397,1.0,1.0,0.0,1.0,1.0,1.0,1.0,0.0,0.54443359375,0.065673828125,-0.11865234375,-0.03179931640625,-0.009490966796875,0.00482177734375,O,2,2026-08-24_23-25-27,2026-08-25
1.0,0.9034399517199758,0.9054054054054054,1.0,1.0,0.0,1.0,1.0,1.0,1.0,0.0,0.548095703125,0.066162109375,-0.1124267578125,-0.027374267578125,-0.009002685546875,0.006927490234375,O,2,2026-08-24_23-25-27,2026-08-25
1.0,0.9106819553409776,0.8963963963963963,1.0,1.0,0.0,1.0,1.0,1.0,1.0,0.0,0.5491943359375,0.064453125,-0.115478515625,-0.018646240234375,-0.009796142578125,0.00665283203125,O,2,2026-08-24_23-25-27,2026-08-25
1.0,0.899818949909475,0.8986486486486487,1.0,1.0,0.0,1.0,1.0,1.0,1.0,0.0,0.5406494140625,0.0572509765625,-0.1171875,-0.016632080078125,-0.00909423828125,0.00482177734375,O,2,2026-08-24_23-25-27,2026-08-25
1.0,0.899818949909475,0.9009009009009009,1.0,1.0,0.0,1.0,1.0,1.0,1.0,0.0,0.5462646484375,0.0631103515625,-0.107666015625,-0.017364501953125,-0.003692626953125,0.00299072265625,O,2,2026-08-24_23-25-27,2026-08-25
1.0,0.9070609535304768,0.9054054054054054,1.0,1.0,0.0,1.0,1.0,1.0,1.0,0.0,0.5501708984375,0.0609130859375,-0.1114501953125,-0.017120361328125,-0.000579833984375,0.00213623046875,O,2,2026-08-24_23-25-27,2026-08-25
1.0,0.9070609535304768,0.9031531531531531,1.0,0.9808917197452229,0.0,1.0,1.0,1.0,1.0,0.0,0.54296875,0.061279296875,-0.1129150390625,-0.019775390625,-0.012298583984375,0.002410888671875,O,2,2026-08-24_23-25-27,2026-08-25
1.0,0.9034399517199758,0.8941441441441441,1.0,1.0,0.0,1.0,1.0,1.0,1.0,0.0,0.5360107421875,0.063720703125,-0.1092529296875,-0.01983642578125,-0.00811767578125,0.000335693359375,O,2,2026-08-24_23-25-27,2026-08-25
1.0,0.9034399517199758,0.9009009009009009,1.0,1.0,0.0,1.0,1.0,1.0,1.0,0.0,0.53662109375,0.065185546875,-0.1123046875,-0.01959228515625,0.001495361328125,-0.0018310546875,O,2,2026-08-24_23-25-27,2026-08-25
1.0,0.899818949909475,0.8896396396396397,1.0,1.0,0.0,1.0,1.0,1.0,1.0,0.0,0.541748046875,0.064453125,-0.10546875,-0.016998291015625,-0.000640869140625,0.000335693359375,O,2,2026-08-24_23-25-27,2026-08-25
1.0,0.9058539529269765,0.8896396396396397,1.0,1.0,0.0,1.0,1.0,1.0,1.0,0.0,0.5416259765625,0.0693359375,-0.1033935546875,-0.01629638671875,-0.004486083984375,0.002197265625,O,2,2026-08-24_23-25-27,2026-08-25
1.0,0.9046469523234761,0.9054054054054054,1.0,1.0,0.0,1.0,1.0,1.0,1.0,0.0,0.5421142578125,0.06787109375,-0.0986328125,-0.017547607421875,-0.0048828125,0.00250244140625,O,2,2026-08-24_23-25-27,2026-08-25
1.0,0.9118889559444779,0.9009009009009009,1.0,1.0,0.0,1.0,1.0,1.0,1.0,0.0,0.5411376953125,0.069091796875,-0.1043701171875,-0.01873779296875,-0.008575439453125,0.000579833984375,O,2,2026-08-24_23-25-27,2026-08-25
1.0,0.9106819553409776,0.8918918918918919,1.0,1.0,0.0,1.0,1.0,1.0,1.0,0.0,0.546630859375,0.0716552734375,-0.102783203125,-0.015533447265625,-0.006317138671875,0.000579833984375,O,2,2026-08-24_23-25-27,2026-08-25
1.0,0.9034399517199758,0.9436936936936937,1.0,0.9936305732484076,0.0,1.0,1.0,1.0,1.0,0.0,0.547119140625,0.070556640625,-0.103271484375,-0.01507568359375,-0.0069580078125,0.005279541015625,O,2,2026-08-24_23-25-27,2026-08-25
1.0,0.9094749547374774,0.9054054054054054,1.0,1.0,0.0,1.0,1.0,1.0,1.0,0.0,0.548095703125,0.06982421875,-0.0968017578125,-0.015899658203125,-0.00982666015625,0.006011962890625,O,2,2026-08-24_23-25-27,2026-08-25
1.0,0.899818949909475,0.9054054054054054,1.0,1.0,0.0,1.0,1.0,1.0,1.0,0.0,0.5406494140625,0.06591796875,-0.1060791015625,-0.01654052734375,-0.0067138671875,0.00579833984375,O,2,2026-08-24_23-25-27,2026-08-25
1.0,0.8986119493059747,0.8806306306306306,1.0,1.0,0.0,1.0,1.0,1.0,1.0,0.0,0.5430908203125,0.0684814453125,-0.10302734375,-0.015228271484375,-0.00634765625,0.0037841796875,O,2,2026-08-24_23-25-27,2026-08-25
1.0,0.9046469523234761,0.9076576576576577,1.0,0.9936305732484076,0.0,1.0,1.0,1.0,1.0,0.0,0.54150390625,0.0643310546875,-0.102783203125,-0.00750732421875,-0.007476806640625,0.00225830078125,O,2,2026-08-24_23-25-27,2026-08-25
1.0,0.9046469523234761,0.8918918918918919,1.0,1.0,0.0,1.0,1.0,1.0,1.0,0.0,0.541015625,0.060546875,-0.1011962890625,-0.0057373046875,-0.00537109375,0.0025634765625,O,2,2026-08-24_23-25-27,2026-08-25
1.0,0.9034399517199758,0.9009009009009009,1.0,1.0,0.0,1.0,1.0,1.0,1.0,0.0,0.541259765625,0.0611572265625,-0.1068115234375,-0.011077880859375,-0.0118408203125,0.00164794921875,O,2,2026-08-24_23-25-27,2026-08-25
1.0,0.899818949909475,0.8806306306306306,1.0,1.0,0.0,1.0,1.0,1.0,1.0,0.0,0.5389404296875,0.0631103515625,-0.104248046875,-0.017822265625,-0.006500244140625,0.0029296875,O,2,2026-08-24_23-25-27,2026-08-25
1.0,0.9034399517199758,0.8986486486486487,1.0,0.9936305732484076,0.0,1.0,1.0,1.0,1.0,0.0,0.5419921875,0.064453125,-0.10791015625,-0.021514892578125,-0.00299072265625,0.002532958984375,O,2,2026-08-24_23-25-27,2026-08-25
1.0,0.899818949909475,0.8806306306306306,1.0,1.0,0.0,1.0,1.0,1.0,1.0,0.0,0.541748046875,0.070556640625,-0.102783203125,-0.018341064453125,-0.00787353515625,0.005218505859375,O,2,2026-08-24_23-25-27,2026-08-25
1.0,0.9034399517199758,0.9009009009009009,1.0,1.0,0.0,1.0,1.0,1.0,1.0,0.0,0.5404052734375,0.068115234375,-0.10546875,-0.015899658203125,-0.008026123046875,0.00567626953125,O,2,2026-08-24_23-25-27,2026-08-25
1.0,0.9034399517199758,0.9031531531531531,1.0,1.0,0.0,1.0,1.0,1.0,1.0,0.0,0.5450439453125,0.0654296875,-0.10498046875,-0.013275146484375,-0.0050048828125,0.00341796875,O,2,2026-08-24_23-25-27,2026-08-25
1.0,0.899818949909475,0.8941441441441441,1.0,1.0,0.0,1.0,1.0,1.0,1.0,0.0,0.5467529296875,0.0704345703125,-0.1116943359375,-0.00994873046875,-0.007354736328125,0.004791259765625,O,2,2026-08-24_23-25-27,2026-08-25
1.0,0.9034399517199758,0.8851351351351351,1.0,1.0,0.0,1.0,1.0,1.0,1.0,0.0,0.547119140625,0.0628662109375,-0.1070556640625,-0.011871337890625,-0.006195068359375,0.006683349609375,O,2,2026-08-24_23-25-27,2026-08-25
1.0,0.9046469523234761,0.8648648648648649,1.0,1.0,0.0,1.0,1.0,1.0,1.0,0.0,0.54248046875,0.0628662109375,-0.101318359375,-0.019287109375,-0.007232666015625,0.005584716796875,O,2,2026-08-24_23-25-27,2026-08-25
1.0,0.9034399517199758,0.8941441441441441,1.0,1.0,0.0,1.0,1.0,1.0,1.0,0.0,0.544677734375,0.0643310546875,-0.107421875,-0.019287109375,-0.004119873046875,0.004547119140625,O,2,2026-08-24_23-25-27,2026-08-25
1.0,0.9022329511164756,0.9009009009009009,1.0,1.0,0.0,1.0,1.0,1.0,1.0,0.0,0.5421142578125,0.063232421875,-0.1063232421875,-0.016448974609375,-0.00653076171875,0.003143310546875,O,2,2026-08-24_23-25-27,2026-08-25
1.0,0.9034399517199758,0.8851351351351351,1.0,1.0,0.0,1.0,1.0,1.0,1.0,0.0,0.5435791015625,0.0657958984375,-0.100830078125,-0.01287841796875,-0.009674072265625,0.004302978515625,O,2,2026-08-24_23-25-27,2026-08-25
1.0,0.899818949909475,0.9009009009009009,1.0,1.0,0.0,1.0,1.0,1.0,1.0,0.0,0.5419921875,0.062255859375,-0.103271484375,-0.012939453125,-0.0098876953125,0.004974365234375,O,2,2026-08-24_23-25-27,2026-08-25
1.0,0.896197948098974,0.8941441441441441,1.0,1.0,0.0,1.0,1.0,1.0,1.0,0.0,0.5416259765625,0.0625,-0.1058349609375,-0.0174560546875,-0.00872802734375,0.004364013671875,O,2,2026-08-24_23-25-27,2026-08-25
1.0,0.9022329511164756,0.8806306306306306,1.0,1.0,0.0,1.0,1.0,1.0,1.0,0.0,0.541015625,0.0654296875,-0.1085205078125,-0.022216796875,-0.010223388671875,0.004913330078125,O,2,2026-08-24_23-25-27,2026-08-25
1.0,0.8913699456849729,0.8828828828828829,1.0,1.0,0.0,1.0,1.0,1.0,1.0,0.0,0.5419921875,0.064208984375,-0.10888671875,-0.023773193359375,-0.007598876953125,0.004364013671875,O,2,2026-08-24_23-25-27,2026-08-25
1.0,0.8974049487024743,0.8806306306306306,1.0,1.0,0.0,1.0,1.0,1.0,1.0,0.0,0.5435791015625,0.0684814453125,-0.112548828125,-0.020416259765625,-0.006256103515625,0.003997802734375,O,2,2026-08-24_23-25-27,2026-08-25
1.0,0.899818949909475,0.8941441441441441,1.0,1.0,0.0,1.0,1.0,1.0,1.0,0.0,0.5440673828125,0.0665283203125,-0.1124267578125,-0.01513671875,-0.006561279296875,0.004180908203125,O,2,2026-08-24_23-25-27,2026-08-25
1.0,0.8261919130959565,0.8716216216216216,1.0,1.0,0.0,1.0,1.0,1.0,1.0,0.0,0.5391845703125,0.057861328125,-0.130859375,-0.009857177734375,-0.0093994140625,0.002227783203125,O,3,2026-08-24_23-25-27,2026-08-25
1.0,0.8467109233554617,0.8626126126126126,1.0,1.0,0.0,1.0,1.0,1.0,1.0,0.0,0.5384521484375,0.0555419921875,-0.138916015625,-0.011627197265625,-0.012847900390625,0.005218505859375,O,3,2026-08-24_23-25-27,2026-08-25
1.0,0.8141219070609536,0.8333333333333334,1.0,1.0,0.0,1.0,1.0,1.0,1.0,0.0,0.539794921875,0.055419921875,-0.1357421875,-0.01385498046875,-0.013214111328125,0.005096435546875,O,3,2026-08-24_23-25-27,2026-08-25
1.0,0.8261919130959565,0.8828828828828829,1.0,0.6242038216560509,0.0,1.0,1.0,1.0,1.0,0.0,0.53759765625,0.0562744140625,-0.14013671875,-0.0087890625,-0.01104736328125,0.00408935546875,O,3,2026-08-24_23-25-27,2026-08-25
1.0,0.8261919130959565,0.8806306306306306,1.0,0.5859872611464968,0.0,1.0,1.0,1.0,1.0,0.0,0.5360107421875,0.0523681640625,-0.1378173828125,-0.003936767578125,-0.006988525390625,0.001220703125,O,3,2026-08-24_23-25-27,2026-08-25
1.0,0.8225709112854557,0.8558558558558559,1.0,0.6114649681528662,0.0,1.0,1.0,1.0,1.0,0.0,0.5384521484375,0.0604248046875,-0.1341552734375,-0.00189208984375,-0.010955810546875,0.00421142578125,O,3,2026-08-24_23-25-27,2026-08-25
1.0,0.8189499094749547,0.8716216216216216,1.0,1.0,0.0,1.0,1.0,1.0,1.0,0.0,0.532470703125,0.0584716796875,-0.1387939453125,-0.00341796875,-0.0101318359375,0.00469970703125,O,3,2026-08-24_23-25-27,2026-08-25
1.0,0.8141219070609536,0.8581081081081081,1.0,1.0,0.0,1.0,1.0,1.0,1.0,0.0,0.5350341796875,0.05908203125,-0.1357421875,-0.006622314453125,-0.00732421875,0.005859375,O,3,2026-08-24_23-25-27,2026-08-25
1.0,0.8261919130959565,0.8693693693693694,0.9301075268817204,1.0,0.0,1.0,1.0,1.0,1.0,0.0,0.5362548828125,0.058349609375,-0.1417236328125,-0.00909423828125,-0.00830078125,0.006500244140625,O,3,2026-08-24_23-25-27,2026-08-25
1.0,0.8189499094749547,0.8581081081081081,1.0,1.0,0.0,1.0,1.0,1.0,1.0,0.0,0.5386962890625,0.0545654296875,-0.1368408203125,-0.006683349609375,-0.001220703125,0.003662109375,O,3,2026-08-24_23-25-27,2026-08-25
1.0,0.8225709112854557,0.8896396396396397,1.0,1.0,0.0,1.0,1.0,1.0,1.0,0.0,0.53955078125,0.0543212890625,-0.1297607421875,-0.005096435546875,-0.00579833984375,0.0059814453125,O,3,2026-08-24_23-25-27,2026-08-25
1.0,0.8044659022329511,0.8671171171171171,1.0,1.0,0.0,1.0,1.0,1.0,1.0,0.0,0.542236328125,0.0523681640625,-0.1329345703125,-0.002532958984375,-0.007965087890625,0.005096435546875,O,3,2026-08-24_23-25-27,2026-08-25
1.0,0.7791188895594447,0.8265765765765766,1.0,1.0,0.0,1.0,1.0,1.0,1.0,0.0,0.5404052734375,0.0478515625,-0.1346435546875,-0.004852294921875,-0.010650634765625,0.003143310546875,O,3,2026-08-24_23-25-27,2026-08-25
1.0,0.823777911888956,0.8445945945945946,0.989247311827957,1.0,0.0,1.0,1.0,1.0,1.0,0.0,0.5379638671875,0.0469970703125,-0.1331787109375,-0.008697509765625,-0.006256103515625,0.002410888671875,O,3,2026-08-24_23-25-27,2026-08-25
1.0,0.8129149064574532,0.8761261261261262,1.0,1.0,0.0,1.0,1.0,1.0,1.0,0.0,0.5435791015625,0.0537109375,-0.1357421875,-0.015899658203125,-0.007171630859375,0.00286865234375,O,3,2026-08-24_23-25-27,2026-08-25
1.0,0.796016898008449,0.8558558558558559,1.0,1.0,0.0,1.0,1.0,1.0,1.0,0.0,0.533935546875,0.050048828125,-0.134765625,-0.01593017578125,-0.00811767578125,0.002838134765625,O,3,2026-08-24_23-25-27,2026-08-25
1.0,0.7911888955944478,0.8175675675675675,0.9946236559139785,1.0,0.0,1.0,1.0,1.0,1.0,0.0,0.5328369140625,0.05517578125,-0.1334228515625,-0.01654052734375,-0.00933837890625,0.001434326171875,O,3,2026-08-24_23-25-27,2026-08-25
1.0,0.7936028968014484,0.8265765765765766,1.0,1.0,0.0,1.0,1.0,1.0,1.0,0.0,0.5325927734375,0.0560302734375,-0.13818359375,-0.011962890625,-0.00335693359375,0.001312255859375,O,3,2026-08-24_23-25-27,2026-08-25
1.0,0.7851538925769463,0.8265765765765766,1.0,1.0,0.0,1.0,1.0,1.0,1.0,0.0,0.5379638671875,0.0562744140625,-0.1346435546875,-0.010009765625,-0.0023193359375,0.002410888671875,O,3,2026-08-24_23-25-27,2026-08-25
1.0,0.7923958961979481,0.8423423423423423,1.0,1.0,0.0,1.0,1.0,1.0,1.0,0.0,0.538330078125,0.0576171875,-0.1375732421875,-0.012359619140625,-0.006622314453125,0.00384521484375,O,3,2026-08-24_23-25-27,2026-08-25
1.0,0.7911888955944478,0.8400900900900901,1.0,1.0,0.0,1.0,1.0,1.0,1.0,0.0,0.5450439453125,0.0537109375,-0.135009765625,-0.01416015625,-0.007965087890625,0.005340576171875,O,3,2026-08-24_23-25-27,2026-08-25
1.0,0.7887748943874472,0.8445945945945946,1.0,1.0,0.0,1.0,1.0,1.0,1.0,0.0,0.5386962890625,0.0579833984375,-0.139892578125,-0.0186767578125,-0.011077880859375,0.00604248046875,O,3,2026-08-24_23-25-27,2026-08-25
1.0,0.7767048883524442,0.8581081081081081,1.0,1.0,0.0,1.0,1.0,1.0,1.0,0.0,0.536865234375,0.0576171875,-0.1405029296875,-0.0208740234375,-0.00677490234375,0.005767822265625,O,3,2026-08-24_23-25-27,2026-08-25
1.0,0.7827398913699457,0.8378378378378378,1.0,1.0,0.0,1.0,1.0,1.0,1.0,0.0,0.53857421875,0.0546875,-0.1400146484375,-0.02008056640625,-0.010986328125,0.006744384765625,O,3,2026-08-24_23-25-27,2026-08-25
1.0,0.7936028968014484,0.8378378378378378,1.0,1.0,0.0,1.0,1.0,1.0,1.0,0.0,0.529541015625,0.0545654296875,-0.144775390625,-0.0198974609375,-0.01025390625,0.00714111328125,O,3,2026-08-24_23-25-27,2026-08-25
1.0,0.7887748943874472,0.8333333333333334,1.0,1.0,0.0,1.0,1.0,1.0,1.0,0.0,0.5364990234375,0.0546875,-0.1317138671875,-0.016937255859375,-0.010833740234375,0.008941650390625,O,3,2026-08-24_23-25-27,2026-08-25
1.0,0.7875678937839469,0.8536036036036037,1.0,1.0,0.0,1.0,1.0,1.0,1.0,0.0,0.533447265625,0.05126953125,-0.1409912109375,-0.016448974609375,-0.011688232421875,0.009124755859375,O,3,2026-08-24_23-25-27,2026-08-25
1.0,0.7948098974049487,0.8445945945945946,1.0,1.0,0.0,1.0,1.0,1.0,1.0,0.0,0.5372314453125,0.0494384765625,-0.1383056640625,-0.01727294921875,-0.0001220703125,0.0045166015625,O,3,2026-08-24_23-25-27,2026-08-25
1.0,0.7887748943874472,0.8333333333333334,1.0,1.0,0.0,1.0,1.0,1.0,1.0,0.0,0.5438232421875,0.0504150390625,-0.1343994140625,-0.01641845703125,-0.0054931640625,0.00299072265625,O,3,2026-08-24_23-25-27,2026-08-25
1.0,0.7899818949909475,0.8558558558558559,1.0,1.0,0.0,1.0,1.0,1.0,1.0,0.0,0.536865234375,0.0498046875,-0.135009765625,-0.01324462890625,-0.006591796875,0.004425048828125,O,3,2026-08-24_23-25-27,2026-08-25
1.0,0.783946891973446,0.8333333333333334,1.0,1.0,0.0,1.0,1.0,1.0,1.0,0.0,0.53564453125,0.0478515625,-0.133544921875,-0.01434326171875,-0.007080078125,0.0029296875,O,3,2026-08-24_23-25-27,2026-08-25
1.0,0.7899818949909475,0.8378378378378378,1.0,1.0,0.0,1.0,1.0,1.0,1.0,0.0,0.5338134765625,0.0496826171875,-0.1397705078125,-0.01568603515625,-0.001373291015625,0.000762939453125,O,3,2026-08-24_23-25-27,2026-08-25
1.0,0.8008449004224502,0.8468468468468469,1.0,1.0,0.0,1.0,1.0,1.0,1.0,0.0,0.540283203125,0.05224609375,-0.1298828125,-0.015472412109375,-0.001434326171875,0.00213623046875,O,3,2026-08-24_23-25-27,2026-08-25
1.0,0.7887748943874472,0.8468468468468469,1.0,1.0,0.0,1.0,1.0,1.0,1.0,0.0,0.54052734375,0.0545654296875,-0.1336669921875,-0.01483154296875,-0.00726318359375,0.004913330078125,O,3,2026-08-24_23-25-27,2026-08-25
1.0,0.7827398913699457,0.8648648648648649,1.0,1.0,0.0,1.0,1.0,1.0,1.0,0.0,0.536865234375,0.051025390625,-0.12939453125,-0.0113525390625,-0.005584716796875,0.00311279296875,O,3,2026-08-24_23-25-27,2026-08-25
1.0,0.7815328907664454,0.8288288288288288,1.0,1.0,0.0,1.0,1.0,1.0,1.0,0.0,0.5341796875,0.0535888671875,-0.1329345703125,-0.011749267578125,-0.004852294921875,-0.001190185546875,O,3,2026-08-24_23-25-27,2026-08-25
1.0,0.8105009052504526,0.8716216216216216,1.0,1.0,0.0,1.0,1.0,1.0,1.0,0.0,0.5350341796875,0.05224609375,-0.1353759765625,-0.010345458984375,-0.00384521484375,0.001251220703125,O,3,2026-08-24_23-25-27,2026-08-25
1.0,0.79963789981895,0.8333333333333334,1.0,1.0,0.0,1.0,1.0,1.0,1.0,0.0,0.5345458984375,0.0577392578125,-0.1348876953125,-0.015869140625,-0.01287841796875,0.005279541015625,O,3,2026-08-24_23-25-27,2026-08-25
1.0,0.796016898008449,0.8333333333333334,1.0,1.0,0.0,1.0,1.0,1.0,1.0,0.0,0.533935546875,0.05419921875,-0.1363525390625,-0.018218994140625,-0.00933837890625,0.00579833984375,O,3,2026-08-24_23-25-27,2026-08-25
1.0,0.7875678937839469,0.8423423423423423,1.0,1.0,0.0,1.0,1.0,1.0,1.0,0.0,0.5318603515625,0.0557861328125,-0.13916015625,-0.0166015625,-0.0089111328125,0.00555419921875,O,3,2026-08-24_23-25-27,2026-08-25
1.0,0.899818949909475,0.9301801801801802,1.0,1.0,0.0,1.0,1.0,1.0,1.0,1.0,0.5321044921875,0.04638671875,-0.150390625,-0.02117919921875,-0.010894775390625,0.007781982421875,O,4,2026-08-24_23-25-27,2026-08-25
1.0,0.9348219674109837,0.9752252252252253,1.0,1.0,0.0,1.0,1.0,1.0,1.0,1.0,0.5302734375,0.0439453125,-0.155517578125,-0.020263671875,-0.01336669921875,0.010040283203125,O,4,2026-08-24_23-25-27,2026-08-25
1.0,0.9251659625829813,0.9572072072072072,1.0,1.0,0.0,1.0,1.0,1.0,1.0,1.0,0.5323486328125,0.0411376953125,-0.1529541015625,-0.018463134765625,-0.00653076171875,0.007904052734375,O,4,2026-08-24_23-25-27,2026-08-25
1.0,0.9348219674109837,0.9797297297297297,1.0,1.0,0.0,1.0,1.0,1.0,1.0,1.0,0.5362548828125,0.048828125,-0.14990234375,-0.014862060546875,-0.008880615234375,0.002838134765625,O,4,2026-08-24_23-25-27,2026-08-25
1.0,0.9287869643934822,0.9752252252252253,1.0,1.0,0.0,1.0,1.0,1.0,1.0,1.0,0.5340576171875,0.045166015625,-0.154296875,-0.005462646484375,-0.008544921875,0.003509521484375,O,4,2026-08-24_23-25-27,2026-08-25
1.0,0.923958961979481,0.9572072072072072,1.0,1.0,0.0,1.0,1.0,1.0,1.0,1.0,0.532470703125,0.0433349609375,-0.152099609375,-0.008575439453125,-0.008087158203125,0.007171630859375,O,4,2026-08-24_23-25-27,2026-08-25
1.0,0.9263729631864815,0.9774774774774775,1.0,1.0,0.0,1.0,1.0,1.0,1.0,1.0,0.5281982421875,0.0447998046875,-0.1539306640625,-0.016510009765625,-0.011688232421875,0.009063720703125,O,4,2026-08-24_23-25-27,2026-08-25
1.0,0.9215449607724804,0.963963963963964,1.0,1.0,0.0,1.0,1.0,1.0,1.0,1.0,0.5284423828125,0.04150390625,-0.150390625,-0.019561767578125,-0.008392333984375,0.007232666015625,O,4,2026-08-24_23-25-27,2026-08-25
1.0,0.9227519613759807,0.9662162162162162,1.0,1.0,0.0,1.0,1.0,1.0,1.0,1.0,0.531494140625,0.043212890625,-0.1552734375,-0.02117919921875,-0.01031494140625,0.00653076171875,O,4,2026-08-24_23-25-27,2026-08-25
1.0,0.9215449607724804,0.9684684684684685,1.0,1.0,0.0,1.0,1.0,1.0,1.0,1.0,0.5322265625,0.044189453125,-0.154541015625,-0.01617431640625,-0.010894775390625,0.00860595703125,O,4,2026-08-24_23-25-27,2026-08-25
1.0,0.9215449607724804,0.9617117117117117,1.0,1.0,0.0,1.0,1.0,1.0,1.0,1.0,0.5333251953125,0.044677734375,-0.1580810546875,-0.016387939453125,-0.010101318359375,0.006744384765625,O,4,2026-08-24_23-25-27,2026-08-25
1.0,0.9227519613759807,0.9797297297297297,1.0,1.0,0.0,1.0,1.0,1.0,1.0,1.0,0.530517578125,0.04150390625,-0.1512451171875,-0.01324462890625,-0.005615234375,0.005218505859375,O,4,2026-08-24_23-25-27,2026-08-25
1.0,0.9034399517199758,0.9369369369369369,1.0,1.0,0.0,1.0,1.0,1.0,1.0,1.0,0.53515625,0.04443359375,-0.1527099609375,-0.0111083984375,-0.0115966796875,0.0068359375,O,4,2026-08-24_23-25-27,2026-08-25
1.0,0.9251659625829813,0.9594594594594594,1.0,1.0,0.0,1.0,1.0,1.0,1.0,1.0,0.5321044921875,0.0400390625,-0.1602783203125,-0.0130615234375,-0.0057373046875,0.005950927734375,O,4,2026-08-24_23-25-27,2026-08-25
1.0,0.9191309595654797,0.9414414414414415,1.0,1.0,0.0,1.0,1.0,1.0,1.0,1.0,0.5352783203125,0.0401611328125,-0.15576171875,-0.0189208984375,-0.00634765625,0.00445556640625,O,4,2026-08-24_23-25-27,2026-08-25
1.0,0.9167169583584792,0.9527027027027027,1.0,1.0,0.0,1.0,1.0,1.0,1.0,1.0,0.53125,0.0450439453125,-0.1573486328125,-0.018646240234375,-0.008575439453125,0.00634765625,O,4,2026-08-24_23-25-27,2026-08-25
1.0,0.9058539529269765,0.9391891891891891,1.0,1.0,0.0,1.0,1.0,1.0,1.0,1.0,0.5289306640625,0.040283203125,-0.1585693359375,-0.01715087890625,-0.003021240234375,0.005523681640625,O,4,2026-08-24_23-25-27,2026-08-25
1.0,0.9215449607724804,0.963963963963964,1.0,1.0,0.0,1.0,1.0,1.0,1.0,1.0,0.535400390625,0.0421142578125,-0.152587890625,-0.01800537109375,-0.00494384765625,0.003997802734375,O,4,2026-08-24_23-25-27,2026-08-25
1.0,0.9227519613759807,0.9662162162162162,1.0,1.0,0.0,1.0,1.0,1.0,1.0,1.0,0.5355224609375,0.0430908203125,-0.1502685546875,-0.014251708984375,-0.007965087890625,0.002960205078125,O,4,2026-08-24_23-25-27,2026-08-25
1.0,0.9046469523234761,0.9414414414414415,1.0,1.0,0.0,1.0,1.0,1.0,1.0,1.0,0.5289306640625,0.04150390625,-0.1563720703125,-0.01251220703125,-0.003448486328125,0.002044677734375,O,4,2026-08-24_23-25-27,2026-08-25
