flex_pinky,flex_ring,flex_middle,flex_index,flex_thumb,touch_index,touch_middle,touch_ring,touch_pinky,touch_r,touch_u,ax,ay,az,gx,gy,gz,label,rep,session,day
0.9490500863557858,0.9858736059479554,0.9779735682819384,1.0,0.297029702970297,1.0,1.0,1.0,1.0,1.0,0.0,0.55419921875,-0.001953125,0.006103515625,-0.02447509765625,0.012725830078125,0.001861572265625,A,0,2026-08-24_10-06-59,2026-08-24
0.9464594127806563,0.9799256505576208,0.9897209985315712,1.0,0.2376237623762376,1.0,1.0,1.0,1.0,1.0,0.0,0.55615234375,0.0008544921875,0.013427734375,-0.0252685546875,0.0111083984375,0.004119873046875,A,0,2026-08-24_10-06-59,2026-08-24
0.9455958549222798,0.9806691449814127,0.9765051395007343,1.0,0.33663366336633666,1.0,1.0,1.0,1.0,1.0,0.0,0.5675048828125,-0.00048828125,0.017578125,-0.023681640625,0.006500244140625,0.010467529296875,A,0,2026-08-24_10-06-59,2026-08-24
0.9481865284974094,0.9799256505576208,0.9955947136563876,1.0,0.25742574257425743,1.0,1.0,1.0,1.0,1.0,0.0,0.5723876953125,-0.00830078125,0.0181884765625,-0.0296630859375,-0.005859375,0.00872802734375,A,0,2026-08-24_10-06-59,2026-08-24
0.9550949913644214,0.9881040892193309,0.986784140969163,1.0,0.3069306930693069,1.0,1.0,1.0,1.0,1.0,0.0,0.5633544921875,-0.0235595703125,0.005615234375,-0.041351318359375,-0.022186279296875,0.003814697265625,A,0,2026-08-24_10-06-59,2026-08-24
0.9438687392055267,0.9828996282527881,0.986784140969163,1.0,0.31683168316831684,1.0,1.0,1.0,1.0,1.0,0.0,0.561279296875,-0.018798828125,-0.0079345703125,-0.061065673828125,-0.0194091796875,-0.011749267578125,A,0,2026-08-24_10-06-59,2026-08-24
0.9438687392055267,0.9814126394052045,0.9853157121879589,1.0,0.26732673267326734,1.0,1.0,1.0,1.0,1.0,0.0,0.561767578125,-0.00634765625,-0.0037841796875,-0.058013916015625,-0.0089111328125,-0.0079345703125,A,0,2026-08-24_10-06-59,2026-08-24
0.9438687392055267,0.9769516728624535,0.9779735682819384,1.0,0.2079207920792079,1.0,1.0,1.0,1.0,1.0,0.0,0.5621337890625,-0.000244140625,0.004638671875,-0.041900634765625,0.000213623046875,0.001190185546875,A,0,2026-08-24_10-06-59,2026-08-24
0.9473229706390328,0.9806691449814127,0.986784140969163,1.0,0.24752475247524752,1.0,1.0,1.0,1.0,1.0,0.0,0.562255859375,-0.0062255859375,0.01123046875,-0.032501220703125,0.012420654296875,0.00970458984375,A,0,2026-08-24_10-06-59,2026-08-24
0.9490500863557858,0.9836431226765799,0.986784140969163,1.0,0.26732673267326734,1.0,1.0,1.0,1.0,1.0,0.0,0.5640869140625,-0.0157470703125,0.002197265625,-0.029296875,0.0052490234375,-0.005279541015625,A,0,2026-08-24_10-06-59,2026-08-24
0.9533678756476683,0.9873605947955391,1.0,1.0,0.2376237623762376,1.0,1.0,1.0,1.0,1.0,0.0,0.5662841796875,0.0015869140625,0.0162353515625,-0.037933349609375,0.0093994140625,-0.006439208984375,A,0,2026-08-24_10-06-59,2026-08-24
0.9412780656303973,0.9806691449814127,0.986784140969163,1.0,0.1782178217821782,1.0,1.0,1.0,1.0,1.0,0.0,0.562255859375,0.006591796875,0.01513671875,-0.035491943359375,0.005401611328125,-0.00250244140625,A,0,2026-08-24_10-06-59,2026-08-24
0.9490500863557858,0.9858736059479554,0.986784140969163,1.0,0.19801980198019803,1.0,1.0,1.0,1.0,1.0,0.0,0.558837890625,0.0052490234375,0.0189208984375,-0.0355224609375,0.0003662109375,0.001434326171875,A,0,2026-08-24_10-06-59,2026-08-24
0.9464594127806563,0.9836431226765799,0.9926578560939795,1.0,0.19801980198019803,1.0,1.0,1.0,1.0,1.0,0.0,0.555419921875,0.0047607421875,0.019287109375,-0.033660888671875,-0.00701904296875,0.004974365234375,A,0,2026-08-24_10-06-59,2026-08-24
0.9490500863557858,0.9843866171003718,0.986784140969163,1.0,0.18811881188118812,1.0,1.0,1.0,1.0,1.0,0.0,0.5533447265625,0.001953125,0.016357421875,-0.032623291015625,-0.003692626953125,0.010223388671875,A,0,2026-08-24_10-06-59,2026-08-24
0.9481865284974094,0.9843866171003718,0.986784140969163,1.0,0.26732673267326734,1.0,1.0,1.0,1.0,1.0,0.0,0.55224609375,-0.0008544921875,0.0155029296875,-0.032623291015625,-0.01171875,0.010406494140625,A,0,2026-08-24_10-06-59,2026-08-24
0.9395509499136442,0.9776951672862454,0.9765051395007343,1.0,0.32673267326732675,1.0,1.0,1.0,1.0,1.0,0.0,0.555419921875,0.0028076171875,0.014892578125,-0.0347900390625,-0.007904052734375,0.01422119140625,A,0,2026-08-24_10-06-59,2026-08-24
0.9421416234887737,0.9806691449814127,0.9853157121879589,1.0,0.297029702970297,1.0,1.0,1.0,1.0,1.0,0.0,0.5557861328125,-0.0001220703125,0.0140380859375,-0.045654296875,-0.0111083984375,0.00933837890625,A,0,2026-08-24_10-06-59,2026-08-24
0.9481865284974094,0.9851301115241635,0.9941262848751835,1.0,0.25742574257425743,1.0,1.0,1.0,1.0,1.0,0.0,0.5653076171875,0.013671875,0.0147705078125,-0.050323486328125,-0.009735107421875,0.013885498046875,A,0,2026-08-24_10-06-59,2026-08-24
0.9481865284974094,0.9776951672862454,0.9941262848751835,1.0,0.297029702970297,1.0,1.0,1.0,1.0,1.0,0.0,0.570068359375,-0.0048828125,-0.0042724609375,-0.061798095703125,-0.01727294921875,0.013946533203125,A,0,2026-08-24_10-06-59,2026-08-24
0.9499136442141624,0.9873605947955391,0.986784140969163,1.0,0.2871287128712871,1.0,1.0,1.0,1.0,1.0,0.0,0.5640869140625,0.005615234375,0.00927734375,-0.07183837890625,-0.010406494140625,0.0179443359375,A,0,2026-08-24_10-06-59,2026-08-24
0.9447322970639033,0.9799256505576208,0.9970631424375918,1.0,0.2871287128712871,1.0,1.0,1.0,1.0,1.0,0.0,0.5548095703125,0.00048828125,0.0069580078125,-0.06634521484375,-0.0069580078125,0.01318359375,A,0,2026-08-24_10-06-59,2026-08-24
0.9464594127806563,0.9881040892193309,0.9970631424375918,1.0,0.3069306930693069,1.0,1.0,1.0,1.0,1.0,0.0,0.5587158203125,0.01171875,0.01318359375,-0.06329345703125,-0.00115966796875,0.0111083984375,A,0,2026-08-24_10-06-59,2026-08-24
0.9455958549222798,0.9836431226765799,0.9941262848751835,1.0,0.32673267326732675,1.0,1.0,1.0,1.0,1.0,0.0,0.5567626953125,0.0242919921875,0.0262451171875,-0.04473876953125,0.00201416015625,0.026214599609375,A,0,2026-08-24_10-06-59,2026-08-24
0.9490500863557858,0.9843866171003718,0.986784140969163,1.0,0.21782178217821782,1.0,1.0,1.0,1.0,1.0,0.0,0.5523681640625,0.0062255859375,0.0279541015625,-0.03680419921875,0.002532958984375,0.036895751953125,A,0,2026-08-24_10-06-59,2026-08-24
0.9430051813471503,0.9873605947955391,1.0,1.0,0.2871287128712871,1.0,1.0,1.0,1.0,1.0,0.0,0.5526123046875,-0.0025634765625,0.0362548828125,-0.04193115234375,-0.005584716796875,0.033233642578125,A,0,2026-08-24_10-06-59,2026-08-24
0.9490500863557858,0.9858736059479554,0.986784140969163,1.0,0.25742574257425743,1.0,1.0,1.0,1.0,1.0,0.0,0.56591796875,-0.0177001953125,0.036865234375,-0.046600341796875,-0.02069091796875,0.0283203125,A,0,2026-08-24_10-06-59,2026-08-24
0.9430051813471503,0.9799256505576208,0.9882525697503671,1.0,0.22772277227722773,1.0,1.0,1.0,1.0,1.0,0.0,0.558837890625,-0.0184326171875,0.0281982421875,-0.055755615234375,-0.035186767578125,0.0252685546875,A,0,2026-08-24_10-06-59,2026-08-24
0.9395509499136442,0.9814126394052045,0.986784140969163,1.0,0.22772277227722773,1.0,1.0,1.0,1.0,1.0,0.0,0.5443115234375,-0.0125732421875,0.0115966796875,-0.054595947265625,-0.04071044921875,0.028717041015625,A,0,2026-08-24_10-06-59,2026-08-24
0.9395509499136442,0.9828996282527881,1.0,1.0,0.19801980198019803,1.0,1.0,1.0,1.0,1.0,0.0,0.5560302734375,-0.01904296875,0.0078125,-0.0491943359375,-0.032012939453125,0.0330810546875,A,0,2026-08-24_10-06-59,2026-08-24
0.9438687392055267,0.9806691449814127,0.9706314243759178,1.0,0.26732673267326734,1.0,1.0,1.0,1.0,1.0,0.0,0.5728759765625,-0.023193359375,0.0159912109375,-0.044647216796875,-0.02471923828125,0.0303955078125,A,0,2026-08-24_10-06-59,2026-08-24
0.9455958549222798,0.9843866171003718,0.9882525697503671,1.0,0.2079207920792079,1.0,1.0,1.0,1.0,1.0,0.0,0.5736083984375,-0.024658203125,0.0166015625,-0.034820556640625,-0.024200439453125,0.031829833984375,A,0,2026-08-24_10-06-59,2026-08-24
0.9464594127806563,0.9858736059479554,0.973568281938326,1.0,0.26732673267326734,1.0,1.0,1.0,1.0,1.0,0.0,0.5736083984375,-0.037353515625,0.0135498046875,-0.03173828125,-0.0191650390625,0.031402587890625,A,0,2026-08-24_10-06-59,2026-08-24
0.9421416234887737,0.9851301115241635,0.9823788546255506,1.0,0.18811881188118812,1.0,1.0,1.0,1.0,1.0,0.0,0.57421875,-0.0455322265625,0.0001220703125,-0.036407470703125,-0.015289306640625,0.026214599609375,A,0,2026-08-24_10-06-59,2026-08-24
0.9490500863557858,0.9836431226765799,1.0,1.0,0.2871287128712871,1.0,1.0,1.0,1.0,1.0,0.0,0.569091796875,-0.0518798828125,-0.0093994140625,-0.0343017578125,-0.009674072265625,0.02386474609375,A,0,2026-08-24_10-06-59,2026-08-24
0.9438687392055267,0.9806691449814127,0.9853157121879589,1.0,0.26732673267326734,1.0,1.0,1.0,1.0,1.0,0.0,0.566162109375,-0.0640869140625,-0.01416015625,-0.039825439453125,0.00286865234375,0.0264892578125,A,0,2026-08-24_10-06-59,2026-08-24
0.9533678756476683,0.9888475836431226,0.9838472834067548,1.0,0.2376237623762376,1.0,1.0,1.0,1.0,1.0,0.0,0.5667724609375,-0.07568359375,-0.0126953125,-0.036834716796875,0.012298583984375,0.022918701171875,A,0,2026-08-24_10-06-59,2026-08-24
0.9525043177892919,0.9843866171003718,0.986784140969163,1.0,0.2079207920792079,1.0,1.0,1.0,1.0,1.0,0.0,0.5726318359375,-0.069580078125,0.0106201171875,-0.044677734375,0.010284423828125,0.00079345703125,A,0,2026-08-24_10-06-59,2026-08-24
0.9438687392055267,0.9843866171003718,0.9838472834067548,1.0,0.19801980198019803,1.0,1.0,1.0,1.0,1.0,0.0,0.57373046875,-0.05224609375,0.0272216796875,-0.046539306640625,-0.00909423828125,-0.017791748046875,A,0,2026-08-24_10-06-59,2026-08-24
0.9516407599309153,0.9836431226765799,0.986784140969163,1.0,0.16831683168316833,1.0,1.0,1.0,1.0,1.0,0.0,0.5638427734375,-0.0137939453125,0.0335693359375,-0.05487060546875,-0.027740478515625,-0.02471923828125,A,0,2026-08-24_10-06-59,2026-08-24
0.9438687392055267,0.9799256505576208,0.9618208516886931,1.0,0.1782178217821782,1.0,1.0,1.0,1.0,1.0,0.0,0.563232421875,-0.089599609375,0.0126953125,-0.020111083984375,-0.0400390625,-0.0009765625,A,1,2026-08-24_10-06-59,2026-08-24
0.9533678756476683,0.979182156133829,0.9720998531571219,1.0,0.2079207920792079,1.0,1.0,1.0,1.0,1.0,0.0,0.5731201171875,-0.1007080078125,0.0,-0.01275634765625,-0.029144287109375,-0.00042724609375,A,1,2026-08-24_10-06-59,2026-08-24
0.9455958549222798,0.9806691449814127,0.9955947136563876,1.0,0.13861386138613863,1.0,1.0,1.0,1.0,1.0,0.0,0.57177734375,-0.1104736328125,-0.00927734375,-0.023651123046875,-0.023162841796875,-0.011932373046875,A,1,2026-08-24_10-06-59,2026-08-24
0.9481865284974094,0.9784386617100371,0.9779735682819384,1.0,0.297029702970297,1.0,1.0,1.0,1.0,1.0,0.0,0.5802001953125,-0.1085205078125,-0.0074462890625,-0.046173095703125,-0.017181396484375,-0.022705078125,A,1,2026-08-24_10-06-59,2026-08-24
0.9490500863557858,0.9762081784386617,0.986784140969163,1.0,0.22772277227722773,1.0,1.0,1.0,1.0,1.0,0.0,0.576416015625,-0.1136474609375,-0.0048828125,-0.063995361328125,-0.027069091796875,-0.02984619140625,A,1,2026-08-24_10-06-59,2026-08-24
0.9421416234887737,0.9769516728624535,0.986784140969163,1.0,0.2871287128712871,1.0,1.0,1.0,1.0,1.0,0.0,0.5635986328125,-0.1119384765625,-0.009521484375,-0.084564208984375,-0.033721923828125,-0.043914794921875,A,1,2026-08-24_10-06-59,2026-08-24
0.9430051813471503,0.9762081784386617,0.9662261380323054,1.0,0.3069306930693069,1.0,1.0,1.0,1.0,1.0,0.0,0.564208984375,-0.1009521484375,0.0028076171875,-0.1046142578125,-0.0325927734375,-0.0595703125,A,1,2026-08-24_10-06-59,2026-08-24
0.9412780656303973,0.9784386617100371,0.9765051395007343,1.0,0.22772277227722773,1.0,1.0,1.0,1.0,1.0,0.0,0.5745849609375,-0.0860595703125,0.02001953125,-0.120361328125,-0.03289794921875,-0.06817626953125,A,1,2026-08-24_10-06-59,2026-08-24
0.9525043177892919,0.9858736059479554,0.986784140969163,1.0,0.24752475247524752,1.0,1.0,1.0,1.0,1.0,0.0,0.5738525390625,-0.082763671875,0.02099609375,-0.119415283203125,-0.039581298828125,-0.07843017578125,A,1,2026-08-24_10-06-59,2026-08-24
0.9490500863557858,0.9739776951672863,0.9809104258443465,1.0,0.3069306930693069,1.0,1.0,1.0,1.0,1.0,0.0,0.5654296875,-0.0718994140625,0.0205078125,-0.120269775390625,-0.0362548828125,-0.084228515625,A,1,2026-08-24_10-06-59,2026-08-24
0.9447322970639033,0.9762081784386617,0.9720998531571219,1.0,0.3069306930693069,1.0,1.0,1.0,1.0,1.0,0.0,0.5614013671875,-0.06689453125,0.020751953125,-0.105560302734375,-0.02947998046875,-0.08355712890625,A,1,2026-08-24_10-06-59,2026-08-24
0.9499136442141624,0.9776951672862454,0.9911894273127754,1.0,0.3069306930693069,1.0,1.0,1.0,1.0,1.0,0.0,0.5562744140625,-0.0609130859375,0.0220947265625,-0.0950927734375,-0.021484375,-0.07867431640625,A,1,2026-08-24_10-06-59,2026-08-24
0.9455958549222798,0.9843866171003718,0.986784140969163,1.0,0.33663366336633666,1.0,1.0,1.0,1.0,1.0,0.0,0.5517578125,-0.0682373046875,0.0146484375,-0.08306884765625,-0.018829345703125,-0.075927734375,A,1,2026-08-24_10-06-59,2026-08-24
0.9490500863557858,0.9762081784386617,0.986784140969163,1.0,0.22772277227722773,1.0,1.0,1.0,1.0,1.0,0.0,0.54345703125,-0.07763671875,0.0018310546875,-0.091949462890625,-0.011199951171875,-0.082366943359375,A,1,2026-08-24_10-06-59,2026-08-24
0.9499136442141624,0.9799256505576208,0.9853157121879589,1.0,0.3069306930693069,1.0,1.0,1.0,1.0,1.0,0.0,0.5284423828125,-0.0748291015625,0.005859375,-0.092315673828125,-0.007598876953125,-0.09759521484375,A,1,2026-08-24_10-06-59,2026-08-24
0.9430051813471503,0.9784386617100371,0.9970631424375918,1.0,0.16831683168316833,1.0,1.0,1.0,1.0,1.0,0.0,0.5311279296875,-0.05859375,0.0260009765625,-0.067535400390625,-0.00341796875,-0.101104736328125,A,1,2026-08-24_10-06-59,2026-08-24
0.9412780656303973,0.9724907063197026,0.9676945668135095,1.0,0.2871287128712871,1.0,1.0,1.0,1.0,1.0,0.0,0.5362548828125,-0.0545654296875,0.0164794921875,-0.05072021484375,0.006591796875,-0.0960693359375,A,1,2026-08-24_10-06-59,2026-08-24
0.9559585492227979,0.9814126394052045,0.9823788546255506,1.0,0.3069306930693069,1.0,1.0,1.0,1.0,1.0,0.0,0.5379638671875,-0.042724609375,0.01513671875,-0.051727294921875,0.025054931640625,-0.07305908203125,A,1,2026-08-24_10-06-59,2026-08-24
0.9421416234887737,0.9769516728624535,0.986784140969163,1.0,0.297029702970297,1.0,1.0,1.0,1.0,1.0,0.0,0.552001953125,-0.0267333984375,0.0234375,-0.0350341796875,0.040618896484375,-0.038818359375,A,1,2026-08-24_10-06-59,2026-08-24
0.9447322970639033,0.971003717472119,0.9838472834067548,1.0,0.25742574257425743,1.0,1.0,1.0,1.0,1.0,0.0,0.5777587890625,-0.045166015625,0.0418701171875,-0.0330810546875,0.039703369140625,-0.024139404296875,A,1,2026-08-24_10-06-59,2026-08-24
0.9430051813471503,0.9769516728624535,0.9779735682819384,1.0,0.16831683168316833,1.0,1.0,1.0,1.0,1.0,0.0,0.5836181640625,-0.0377197265625,0.046875,-0.041259765625,0.021270751953125,-0.03173828125,A,1,2026-08-24_10-06-59,2026-08-24
0.9455958549222798,0.9724907063197026,0.9765051395007343,1.0,0.2871287128712871,1.0,1.0,1.0,1.0,1.0,0.0,0.5845947265625,-0.034912109375,0.04736328125,-0.041015625,0.005218505859375,-0.0479736328125,A,1,2026-08-24_10-06-59,2026-08-24
0.9421416234887737,0.9799256505576208,0.9838472834067548,1.0,0.3564356435643564,1.0,1.0,1.0,1.0,1.0,0.0,0.591064453125,-0.0172119140625,0.049072265625,-0.042816162109375,-0.0150146484375,-0.0577392578125,A,1,2026-08-24_10-06-59,2026-08-24
0.9525043177892919,0.9814126394052045,0.9794419970631424,1.0,0.25742574257425743,1.0,1.0,1.0,1.0,1.0,0.0,0.5782470703125,-0.014404296875,0.03759765625,-0.032196044921875,-0.03472900390625,-0.066802978515625,A,1,2026-08-24_10-06-59,2026-08-24
0.9352331606217616,0.9762081784386617,0.9838472834067548,1.0,0.33663366336633666,1.0,1.0,1.0,1.0,1.0,0.0,0.5582275390625,-0.013427734375,0.017822265625,-0.0255126953125,-0.035369873046875,-0.0738525390625,A,1,2026-08-24_10-06-59,2026-08-24
0.9490500863557858,0.9762081784386617,0.986784140969163,1.0,0.31683168316831684,1.0,1.0,1.0,1.0,1.0,0.0,0.5606689453125,0.01123046875,0.015380859375,-0.03314208984375,-0.028778076171875,-0.07574462890625,A,1,2026-08-24_10-06-59,2026-08-24
0.9404145077720207,0.9836431226765799,0.9882525697503671,1.0,0.24752475247524752,1.0,1.0,1.0,1.0,1.0,0.0,0.5621337890625,0.023193359375,0.0146484375,-0.021514892578125,-0.03204345703125,-0.06072998046875,A,1,2026-08-24_10-06-59,2026-08-24
0.9507772020725389,0.9762081784386617,0.9853157121879589,1.0,0.1782178217821782,1.0,1.0,1.0,1.0,1.0,0.0,0.5623779296875,0.0137939453125,0.005859375,-0.028656005859375,-0.03076171875,-0.04156494140625,A,1,2026-08-24_10-06-59,2026-08-24
0.9559585492227979,0.9776951672862454,0.9897209985315712,1.0,0.2871287128712871,1.0,1.0,1.0,1.0,1.0,0.0,0.5599365234375,-0.0068359375,-0.001953125,-0.035369873046875,-0.028961181640625,-0.03375244140625,A,1,2026-08-24_10-06-59,2026-08-24
0.9438687392055267,0.9762081784386617,0.9765051395007343,1.0,0.16831683168316833,1.0,1.0,1.0,1.0,1.0,0.0,0.564208984375,-0.009521484375,0.000732421875,-0.049957275390625,-0.0213623046875,-0.033721923828125,A,1,2026-08-24_10-06-59,2026-08-24
0.9438687392055267,0.9784386617100371,0.9911894273127754,1.0,0.24752475247524752,1.0,1.0,1.0,1.0,1.0,0.0,0.57568359375,-0.00732421875,0.0064697265625,-0.05010986328125,-0.01611328125,-0.025482177734375,A,1,2026-08-24_10-06-59,2026-08-24
0.9490500863557858,0.9881040892193309,0.9955947136563876,1.0,0.22772277227722773,1.0,1.0,1.0,1.0,1.0,0.0,0.578369140625,-0.017822265625,0.000244140625,-0.04962158203125,-0.0079345703125,-0.0213623046875,A,1,2026-08-24_10-06-59,2026-08-24
0.9550949913644214,0.9866171003717472,0.9823788546255506,1.0,0.26732673267326734,1.0,1.0,1.0,1.0,1.0,0.0,0.5784912109375,-0.022216796875,0.0035400390625,-0.039276123046875,0.001251220703125,-0.027099609375,A,1,2026-08-24_10-06-59,2026-08-24
0.9464594127806563,0.9776951672862454,0.9720998531571219,1.0,0.2376237623762376,1.0,1.0,1.0,1.0,1.0,0.0,0.5836181640625,-0.0252685546875,0.010498046875,-0.031982421875,0.008331298828125,-0.03436279296875,A,1,2026-08-24_10-06-59,2026-08-24
0.9430051813471503,0.9769516728624535,0.9838472834067548,1.0,0.26732673267326734,1.0,1.0,1.0,1.0,1.0,0.0,0.58056640625,-0.01806640625,0.0274658203125,-0.037628173828125,0.00872802734375,-0.04681396484375,A,1,2026-08-24_10-06-59,2026-08-24
0.9421416234887737,0.9843866171003718,0.9897209985315712,1.0,0.1782178217821782,1.0,1.0,1.0,1.0,1.0,0.0,0.572021484375,0.004638671875,0.0396728515625,-0.0294189453125,-0.001953125,-0.051971435546875,A,1,2026-08-24_10-06-59,2026-08-24
0.9438687392055267,0.9762081784386617,0.9897209985315712,1.0,0.24752475247524752,1.0,1.0,1.0,1.0,1.0,0.0,0.5673828125,0.0003662109375,0.0308837890625,-0.031524658203125,-0.004302978515625,-0.050628662109375,A,1,2026-08-24_10-06-59,2026-08-24
0.9404145077720207,0.9762081784386617,0.9853157121879589,1.0,0.26732673267326734,1.0,1.0,1.0,1.0,1.0,0.0,0.566650390625,0.001220703125,0.021484375,-0.02874755859375,-0.0115966796875,-0.050506591796875,A,1,2026-08-24_10-06-59,2026-08-24
0.9421416234887737,0.9762081784386617,0.973568281938326,1.0,0.16831683168316833,1.0,1.0,1.0,1.0,1.0,0.0,0.5633544921875,-0.0050048828125,0.0146484375,-0.019317626953125,-0.015533447265625,-0.053619384765625,A,1,2026-08-24_10-06-59,2026-08-24
0.9525043177892919,0.9762081784386617,0.9897209985315712,1.0,0.297029702970297,1.0,1.0,1.0,1.0,1.0,0.0,0.56689453125,0.001220703125,0.0091552734375,-0.004913330078125,-0.010498046875,-0.050750732421875,A,1,2026-08-24_10-06-59,2026-08-24
1.0,0.9799256505576208,1.0,1.0,0.37623762376237624,1.0,1.0,1.0,1.0,1.0,0.0,0.559814453125,0.0496826171875,-0.0677490234375,-0.011138916015625,-0.020263671875,0.008331298828125,A,2,2026-08-24_10-06-59,2026-08-24
1.0,0.979182156133829,1.0,1.0,0.42574257425742573,1.0,1.0,1.0,1.0,1.0,0.0,0.5618896484375,0.0604248046875,-0.069091796875,-0.00323486328125,-0.023284912109375,0.0052490234375,A,2,2026-08-24_10-06-59,2026-08-24
1.0,0.9814126394052045,1.0,1.0,0.38613861386138615,1.0,1.0,1.0,1.0,1.0,0.0,0.5545654296875,0.046142578125,-0.08837890625,-0.00213623046875,-0.01806640625,0.0013427734375,A,2,2026-08-24_10-06-59,2026-08-24
1.0,0.9821561338289962,1.0,1.0,0.37623762376237624,1.0,1.0,1.0,1.0,1.0,0.0,0.561767578125,0.06787109375,-0.0726318359375,-0.022125244140625,-0.009368896484375,-0.009063720703125,A,2,2026-08-24_10-06-59,2026-08-24
1.0,0.9799256505576208,1.0,1.0,0.4158415841584158,1.0,1.0,1.0,1.0,1.0,0.0,0.568603515625,0.0693359375,-0.06982421875,-0.011138916015625,-0.0177001953125,-0.006683349609375,A,2,2026-08-24_10-06-59,2026-08-24
1.0,0.9888475836431226,1.0,1.0,0.44554455445544555,1.0,1.0,1.0,1.0,1.0,0.0,0.5562744140625,0.057861328125,-0.078857421875,-0.0152587890625,-0.0179443359375,-0.011688232421875,A,2,2026-08-24_10-06-59,2026-08-24
1.0,0.9858736059479554,1.0,1.0,0.46534653465346537,1.0,1.0,1.0,1.0,1.0,0.0,0.55810546875,0.0726318359375,-0.0731201171875,-0.0186767578125,-0.011627197265625,-0.01910400390625,A,2,2026-08-24_10-06-59,2026-08-24
1.0,0.9762081784386617,1.0,1.0,0.46534653465346537,1.0,1.0,1.0,1.0,1.0,0.0,0.5543212890625,0.0865478515625,-0.0723876953125,-0.00494384765625,-0.000213623046875,-0.00469970703125,A,2,2026-08-24_10-06-59,2026-08-24
1.0,0.9828996282527881,1.0,1.0,0.38613861386138615,1.0,1.0,1.0,1.0,1.0,0.0,0.5592041015625,0.0662841796875,-0.0697021484375,0.0025634765625,0.008209228515625,0.003509521484375,A,2,2026-08-24_10-06-59,2026-08-24
1.0,0.9843866171003718,1.0,1.0,0.42574257425742573,1.0,1.0,1.0,1.0,1.0,0.0,0.5579833984375,0.043701171875,-0.0887451171875,-0.000701904296875,0.006622314453125,-0.005126953125,A,2,2026-08-24_10-06-59,2026-08-24
1.0,0.9858736059479554,1.0,1.0,0.38613861386138615,1.0,1.0,1.0,1.0,1.0,0.0,0.5523681640625,0.0611572265625,-0.089111328125,-0.0078125,0.009735107421875,-0.008758544921875,A,2,2026-08-24_10-06-59,2026-08-24
1.0,0.9843866171003718,1.0,1.0,0.3564356435643564,1.0,1.0,1.0,1.0,1.0,0.0,0.555419921875,0.0625,-0.0860595703125,-0.0020751953125,0.003692626953125,-0.004547119140625,A,2,2026-08-24_10-06-59,2026-08-24
1.0,0.979182156133829,1.0,1.0,0.36633663366336633,1.0,1.0,1.0,1.0,1.0,0.0,0.5546875,0.061279296875,-0.076904296875,-0.0126953125,0.004119873046875,-0.005889892578125,A,2,2026-08-24_10-06-59,2026-08-24
1.0,0.9814126394052045,1.0,1.0,0.38613861386138615,1.0,1.0,1.0,1.0,1.0,0.0,0.5582275390625,0.079345703125,-0.06005859375,-0.014434814453125,0.002471923828125,-0.004730224609375,A,2,2026-08-24_10-06-59,2026-08-24
1.0,0.9806691449814127,1.0,1.0,0.40594059405940597,1.0,1.0,1.0,1.0,1.0,0.0,0.55078125,0.083984375,-0.0623779296875,-0.018890380859375,-0.0052490234375,0.002044677734375,A,2,2026-08-24_10-06-59,2026-08-24
1.0,0.9784386617100371,1.0,1.0,0.3564356435643564,1.0,1.0,1.0,1.0,1.0,0.0,0.543701171875,0.0848388671875,-0.07080078125,-0.03179931640625,-0.00933837890625,0.0025634765625,A,2,2026-08-24_10-06-59,2026-08-24
1.0,0.9866171003717472,1.0,1.0,0.3564356435643564,1.0,1.0,1.0,1.0,1.0,0.0,0.538818359375,0.099609375,-0.0751953125,-0.044403076171875,-0.0057373046875,0.01971435546875,A,2,2026-08-24_10-06-59,2026-08-24
1.0,0.9888475836431226,1.0,1.0,0.44554455445544555,1.0,1.0,1.0,1.0,1.0,0.0,0.5452880859375,0.091796875,-0.078369140625,-0.039764404296875,-0.009552001953125,0.027069091796875,A,2,2026-08-24_10-06-59,2026-08-24
1.0,0.9895910780669145,1.0,1.0,0.44554455445544555,1.0,1.0,1.0,1.0,1.0,0.0,0.5504150390625,0.087890625,-0.072021484375,-0.043212890625,-0.010589599609375,0.022430419921875,A,2,2026-08-24_10-06-59,2026-08-24
1.0,0.9762081784386617,1.0,1.0,0.42574257425742573,1.0,1.0,1.0,1.0,1.0,0.0,0.5548095703125,0.0745849609375,-0.0667724609375,-0.033294677734375,-0.0096435546875,0.027374267578125,A,2,2026-08-24_10-06-59,2026-08-24
1.0,0.9903345724907063,1.0,1.0,0.48514851485148514,1.0,1.0,1.0,1.0,1.0,0.0,0.566162109375,0.046875,-0.072265625,-0.029205322265625,-0.009918212890625,0.023101806640625,A,2,2026-08-24_10-06-59,2026-08-24
1.0,0.9799256505576208,1.0,1.0,0.46534653465346537,1.0,1.0,1.0,1.0,1.0,0.0,0.5650634765625,0.0341796875,-0.075439453125,-0.033599853515625,-0.018951416015625,0.0079345703125,A,2,2026-08-24_10-06-59,2026-08-24
1.0,0.9828996282527881,1.0,1.0,0.46534653465346537,1.0,1.0,1.0,1.0,1.0,0.0,0.5577392578125,0.0379638671875,-0.0787353515625,-0.04620361328125,-0.019256591796875,-0.005462646484375,A,2,2026-08-24_10-06-59,2026-08-24
1.0,0.9873605947955391,0.9970631424375918,1.0,0.46534653465346537,1.0,1.0,1.0,1.0,1.0,0.0,0.552734375,0.04931640625,-0.0809326171875,-0.037384033203125,-0.012420654296875,-0.010162353515625,A,2,2026-08-24_10-06-59,2026-08-24
1.0,0.979182156133829,1.0,1.0,0.46534653465346537,1.0,1.0,1.0,1.0,1.0,0.0,0.5504150390625,0.0531005859375,-0.071044921875,-0.028564453125,0.004852294921875,-0.004150390625,A,2,2026-08-24_10-06-59,2026-08-24
1.0,0.9858736059479554,1.0,1.0,0.4158415841584158,1.0,1.0,1.0,1.0,1.0,0.0,0.554931640625,0.0523681640625,-0.057861328125,-0.009796142578125,0.01556396484375,-0.00018310546875,A,2,2026-08-24_10-06-59,2026-08-24
1.0,0.9843866171003718,1.0,1.0,0.44554455445544555,1.0,1.0,1.0,1.0,1.0,0.0,0.5609130859375,0.0419921875,-0.0548095703125,-0.006927490234375,0.014801025390625,-0.0107421875,A,2,2026-08-24_10-06-59,2026-08-24
1.0,0.9821561338289962,1.0,1.0,0.40594059405940597,1.0,1.0,1.0,1.0,1.0,0.0,0.5537109375,0.051513671875,-0.0533447265625,-0.018798828125,0.0126953125,-0.025787353515625,A,2,2026-08-24_10-06-59,2026-08-24
1.0,0.9762081784386617,1.0,1.0,0.48514851485148514,1.0,1.0,1.0,1.0,1.0,0.0,0.550537109375,0.0782470703125,-0.04833984375,-0.013458251953125,0.007110595703125,-0.028289794921875,A,2,2026-08-24_10-06-59,2026-08-24
1.0,0.9784386617100371,1.0,1.0,0.42574257425742573,1.0,1.0,1.0,1.0,1.0,0.0,0.54541015625,0.0784912109375,-0.060791015625,-0.00604248046875,0.008209228515625,-0.0230712890625,A,2,2026-08-24_10-06-59,2026-08-24
1.0,0.9806691449814127,1.0,1.0,0.36633663366336633,1.0,1.0,1.0,1.0,1.0,0.0,0.533935546875,0.0885009765625,-0.0682373046875,-0.00732421875,0.016326904296875,-0.023529052734375,A,2,2026-08-24_10-06-59,2026-08-24
1.0,0.9799256505576208,1.0,1.0,0.43564356435643564,1.0,1.0,1.0,1.0,1.0,0.0,0.5380859375,0.1065673828125,-0.0587158203125,-0.00299072265625,0.01708984375,-0.01641845703125,A,2,2026-08-24_10-06-59,2026-08-24
1.0,0.979182156133829,1.0,1.0,0.38613861386138615,1.0,1.0,1.0,1.0,1.0,0.0,0.5408935546875,0.10302734375,-0.05810546875,0.00140380859375,0.018280029296875,-0.002685546875,A,2,2026-08-24_10-06-59,2026-08-24
1.0,0.9762081784386617,1.0,1.0,0.48514851485148514,1.0,1.0,1.0,1.0,1.0,0.0,0.548095703125,0.0914306640625,-0.0543212890625,-0.005889892578125,0.008544921875,-0.002166748046875,A,2,2026-08-24_10-06-59,2026-08-24
1.0,0.9828996282527881,1.0,1.0,0.5247524752475248,1.0,1.0,1.0,1.0,1.0,0.0,0.54443359375,0.083251953125,-0.058349609375,-0.016571044921875,-0.0009765625,-0.00872802734375,A,2,2026-08-24_10-06-59,2026-08-24
1.0,0.9851301115241635,1.0,1.0,0.36633663366336633,1.0,1.0,1.0,1.0,1.0,0.0,0.5428466796875,0.0943603515625,-0.0565185546875,-0.019134521484375,-0.005279541015625,-0.007171630859375,A,2,2026-08-24_10-06-59,2026-08-24
0.9974093264248705,0.9784386617100371,1.0,1.0,0.40594059405940597,1.0,1.0,1.0,1.0,1.0,0.0,0.542724609375,0.0902099609375,-0.057861328125,-0.01165771484375,-0.0057373046875,-0.002227783203125,A,2,2026-08-24_10-06-59,2026-08-24
1.0,0.9747211895910781,1.0,1.0,0.38613861386138615,1.0,1.0,1.0,1.0,1.0,0.0,0.545654296875,0.0911865234375,-0.056640625,-0.011688232421875,0.000579833984375,0.005126953125,A,2,2026-08-24_10-06-59,2026-08-24
1.0,0.9762081784386617,1.0,1.0,0.39603960396039606,1.0,1.0,1.0,1.0,1.0,0.0,0.55078125,0.0908203125,-0.055419921875,-0.008026123046875,0.002960205078125,0.00860595703125,A,2,2026-08-24_10-06-59,2026-08-24
1.0,0.9806691449814127,1.0,1.0,0.4158415841584158,1.0,1.0,1.0,1.0,1.0,0.0,0.553466796875,0.0762939453125,-0.0576171875,-0.003631591796875,-0.002197265625,0.008819580078125,A,2,2026-08-24_10-06-59,2026-08-24
1.0,0.9947955390334573,1.0,1.0,0.3564356435643564,1.0,1.0,1.0,1.0,1.0,0.0,0.5489501953125,0.030517578125,-0.104736328125,-0.0311279296875,0.010345458984375,0.014434814453125,A,3,2026-08-24_10-06-59,2026-08-24
1.0,0.9962825278810409,0.9882525697503671,1.0,0.3564356435643564,1.0,1.0,1.0,1.0,1.0,0.0,0.5548095703125,0.033447265625,-0.09228515625,-0.022613525390625,0.009765625,0.018951416015625,A,3,2026-08-24_10-06-59,2026-08-24
1.0,0.9947955390334573,1.0,1.0,0.38613861386138615,1.0,1.0,1.0,1.0,1.0,0.0,0.5562744140625,0.0262451171875,-0.08154296875,-0.02288818359375,0.00970458984375,0.018646240234375,A,3,2026-08-24_10-06-59,2026-08-24
1.0,0.9992565055762082,1.0,1.0,0.36633663366336633,1.0,1.0,1.0,1.0,1.0,0.0,0.5538330078125,0.0302734375,-0.07666015625,-0.02294921875,0.004669189453125,0.0162353515625,A,3,2026-08-24_10-06-59,2026-08-24
1.0,1.0,1.0,1.0,0.3564356435643564,1.0,1.0,1.0,1.0,1.0,0.0,0.54931640625,0.0301513671875,-0.0762939453125,-0.018646240234375,-0.000152587890625,0.011505126953125,A,3,2026-08-24_10-06-59,2026-08-24
1.0,0.995539033457249,1.0,1.0,0.38613861386138615,1.0,1.0,1.0,1.0,1.0,0.0,0.543212890625,0.0242919921875,-0.084228515625,-0.020965576171875,-0.00048828125,0.00714111328125,A,3,2026-08-24_10-06-59,2026-08-24
1.0,0.9992565055762082,1.0,1.0,0.3564356435643564,1.0,1.0,1.0,1.0,1.0,0.0,0.5450439453125,0.0386962890625,-0.078369140625,-0.017425537109375,0.00506591796875,0.009185791015625,A,3,2026-08-24_10-06-59,2026-08-24
1.0,1.0,1.0,1.0,0.3069306930693069,1.0,1.0,1.0,1.0,1.0,0.0,0.5467529296875,0.0372314453125,-0.0665283203125,-0.00433349609375,0.0074462890625,0.01861572265625,A,3,2026-08-24_10-06-59,2026-08-24
1.0,1.0,0.986784140969163,1.0,0.3564356435643564,1.0,1.0,1.0,1.0,1.0,0.0,0.5540771484375,0.018310546875,-0.06787109375,-0.00677490234375,0.00286865234375,0.016021728515625,A,3,2026-08-24_10-06-59,2026-08-24
1.0,1.0,1.0,1.0,0.37623762376237624,1.0,1.0,1.0,1.0,1.0,0.0,0.5469970703125,0.023681640625,-0.0718994140625,-0.018463134765625,-0.005157470703125,0.008697509765625,A,3,2026-08-24_10-06-59,2026-08-24
1.0,1.0,1.0,1.0,0.40594059405940597,1.0,1.0,1.0,1.0,1.0,0.0,0.5504150390625,0.0279541015625,-0.0733642578125,-0.008209228515625,-0.01177978515625,0.012847900390625,A,3,2026-08-24_10-06-59,2026-08-24
1.0,0.9977695167286246,0.9955947136563876,1.0,0.40594059405940597,1.0,1.0,1.0,1.0,1.0,0.0,0.5517578125,0.0125732421875,-0.08984375,-0.00628662109375,-0.009124755859375,0.00848388671875,A,3,2026-08-24_10-06-59,2026-08-24
1.0,1.0,1.0,1.0,0.36633663366336633,1.0,1.0,1.0,1.0,1.0,0.0,0.552490234375,0.03076171875,-0.078125,-0.0120849609375,-0.0047607421875,0.004119873046875,A,3,2026-08-24_10-06-59,2026-08-24
1.0,0.9947955390334573,1.0,1.0,0.38613861386138615,1.0,1.0,1.0,1.0,1.0,0.0,0.5595703125,0.034912109375,-0.0848388671875,-0.004364013671875,-0.008087158203125,0.012115478515625,A,3,2026-08-24_10-06-59,2026-08-24
1.0,0.9947955390334573,0.9926578560939795,1.0,0.3564356435643564,1.0,1.0,1.0,1.0,1.0,0.0,0.565673828125,0.018798828125,-0.089599609375,0.00604248046875,-0.01666259765625,0.021392822265625,A,3,2026-08-24_10-06-59,2026-08-24
1.0,0.9992565055762082,1.0,1.0,0.36633663366336633,1.0,1.0,1.0,1.0,1.0,0.0,0.55908203125,0.0032958984375,-0.109375,-0.01055908203125,-0.017303466796875,0.009521484375,A,3,2026-08-24_10-06-59,2026-08-24
1.0,1.0,1.0,1.0,0.3564356435643564,1.0,1.0,1.0,1.0,1.0,0.0,0.564453125,0.0184326171875,-0.109375,-0.0201416015625,-0.0069580078125,0.003997802734375,A,3,2026-08-24_10-06-59,2026-08-24
1.0,0.9985130111524163,0.9970631424375918,1.0,0.26732673267326734,1.0,1.0,1.0,1.0,1.0,0.0,0.575439453125,0.0277099609375,-0.0953369140625,-0.01690673828125,-0.003204345703125,0.002410888671875,A,3,2026-08-24_10-06-59,2026-08-24
1.0,0.9970260223048327,1.0,1.0,0.32673267326732675,1.0,1.0,1.0,1.0,1.0,0.0,0.578125,0.0296630859375,-0.0897216796875,-0.01239013671875,-0.00189208984375,-0.0001220703125,A,3,2026-08-24_10-06-59,2026-08-24
1.0,1.0,1.0,1.0,0.38613861386138615,1.0,1.0,1.0,1.0,1.0,0.0,0.5684814453125,0.0311279296875,-0.0906982421875,-0.01617431640625,0.003814697265625,-0.0032958984375,A,3,2026-08-24_10-06-59,2026-08-24
1.0,1.0,0.9970631424375918,1.0,0.37623762376237624,1.0,1.0,1.0,1.0,1.0,0.0,0.570556640625,0.03076171875,-0.0859375,-0.01312255859375,0.009429931640625,-0.005645751953125,A,3,2026-08-24_10-06-59,2026-08-24
1.0,0.9985130111524163,1.0,1.0,0.3564356435643564,1.0,1.0,1.0,1.0,1.0,0.0,0.5654296875,0.0242919921875,-0.0831298828125,-0.0189208984375,0.01361083984375,-0.009857177734375,A,3,2026-08-24_10-06-59,2026-08-24
1.0,1.0,1.0,1.0,0.3465346534653465,1.0,1.0,1.0,1.0,1.0,0.0,0.5653076171875,0.033203125,-0.079345703125,-0.024139404296875,0.017608642578125,-0.013916015625,A,3,2026-08-24_10-06-59,2026-08-24
1.0,1.0,1.0,1.0,0.36633663366336633,1.0,1.0,1.0,1.0,1.0,0.0,0.569091796875,0.037353515625,-0.0750732421875,-0.0189208984375,0.009124755859375,-0.0120849609375,A,3,2026-08-24_10-06-59,2026-08-24
1.0,0.995539033457249,0.986784140969163,1.0,0.36633663366336633,1.0,1.0,1.0,1.0,1.0,0.0,0.5576171875,0.01953125,-0.0791015625,-0.01849365234375,-0.00091552734375,-0.01617431640625,A,3,2026-08-24_10-06-59,2026-08-24
1.0,0.9992565055762082,0.986784140969163,1.0,0.3564356435643564,1.0,1.0,1.0,1.0,1.0,0.0,0.5506591796875,0.015869140625,-0.08251953125,-0.013885498046875,0.002166748046875,-0.024169921875,A,3,2026-08-24_10-06-59,2026-08-24
1.0,0.9992565055762082,1.0,1.0,0.3564356435643564,1.0,1.0,1.0,1.0,1.0,0.0,0.54931640625,0.0301513671875,-0.0799560546875,-0.02001953125,0.009246826171875,-0.032684326171875,A,3,2026-08-24_10-06-59,2026-08-24
1.0,0.9918215613382899,0.9911894273127754,1.0,0.40594059405940597,1.0,1.0,1.0,1.0,1.0,0.0,0.552978515625,0.050048828125,-0.075439453125,-0.013946533203125,0.0045166015625,-0.026885986328125,A,3,2026-08-24_10-06-59,2026-08-24
1.0,0.9992565055762082,1.0,1.0,0.3564356435643564,1.0,1.0,1.0,1.0,1.0,0.0,0.5496826171875,0.0423583984375,-0.072998046875,-0.0126953125,-0.003387451171875,-0.020111083984375,A,3,2026-08-24_10-06-59,2026-08-24
1.0,0.9903345724907063,1.0,1.0,0.3564356435643564,1.0,1.0,1.0,1.0,1.0,0.0,0.5533447265625,0.043212890625,-0.07373046875,-0.025146484375,-0.007049560546875,-0.0194091796875,A,3,2026-08-24_10-06-59,2026-08-24
1.0,0.9947955390334573,1.0,1.0,0.3564356435643564,1.0,1.0,1.0,1.0,1.0,0.0,0.5460205078125,0.051513671875,-0.0726318359375,-0.0255126953125,-0.0101318359375,-0.016998291015625,A,3,2026-08-24_10-06-59,2026-08-24
1.0,0.995539033457249,1.0,1.0,0.3069306930693069,1.0,1.0,1.0,1.0,1.0,0.0,0.54150390625,0.05224609375,-0.083984375,-0.0313720703125,-0.006988525390625,-0.016448974609375,A,3,2026-08-24_10-06-59,2026-08-24
1.0,0.9992565055762082,0.9882525697503671,1.0,0.3564356435643564,1.0,1.0,1.0,1.0,1.0,0.0,0.5430908203125,0.071533203125,-0.075927734375,-0.0399169921875,-0.000732421875,-0.014404296875,A,3,2026-08-24_10-06-59,2026-08-24
1.0,0.9962825278810409,1.0,1.0,0.3564356435643564,1.0,1.0,1.0,1.0,1.0,0.0,0.548095703125,0.07421875,-0.0706787109375,-0.03619384765625,0.00091552734375,-0.001953125,A,3,2026-08-24_10-06-59,2026-08-24
1.0,1.0,1.0,1.0,0.37623762376237624,1.0,1.0,1.0,1.0,1.0,0.0,0.5577392578125,0.052490234375,-0.07470703125,-0.0428466796875,-0.000244140625,-0.003173828125,A,3,2026-08-24_10-06-59,2026-08-24
1.0,0.9985130111524163,0.9911894273127754,1.0,0.3564356435643564,1.0,1.0,1.0,1.0,1.0,0.0,0.5595703125,0.05419921875,-0.081787109375,-0.057373046875,-0.000732421875,-0.0098876953125,A,3,2026-08-24_10-06-59,2026-08-24
1.0,0.9977695167286246,0.9955947136563876,1.0,0.3465346534653465,1.0,1.0,1.0,1.0,1.0,0.0,0.5655517578125,0.0535888671875,-0.0849609375,-0.05255126953125,0.001251220703125,-0.003326416015625,A,3,2026-08-24_10-06-59,2026-08-24
1.0,0.9925650557620818,0.9897209985315712,1.0,0.3564356435643564,1.0,1.0,1.0,1.0,1.0,0.0,0.563232421875,0.0311279296875,-0.0882568359375,-0.04754638671875,0.003875732421875,-0.004241943359375,A,3,2026-08-24_10-06-59,2026-08-24
1.0,0.9962825278810409,1.0,1.0,0.33663366336633666,1.0,1.0,1.0,1.0,1.0,0.0,0.550537109375,0.02099609375,-0.0902099609375,-0.04852294921875,0.015869140625,-0.014434814453125,A,3,2026-08-24_10-06-59,2026-08-24
1.0,1.0,1.0,1.0,0.38613861386138615,1.0,1.0,1.0,1.0,1.0,0.0,0.5509033203125,0.029296875,-0.0660400390625,-0.0345458984375,0.01556396484375,-0.017669677734375,A,3,2026-08-24_10-06-59,2026-08-24
0.9974093264248705,1.0,1.0,1.0,0.2871287128712871,1.0,1.0,1.0,1.0,1.0,0.0,0.5615234375,0.00732421875,-0.04931640625,-0.0023193359375,-0.016326904296875,0.02099609375,A,4,2026-08-24_10-06-59,2026-08-24
0.9887737478411054,1.0,1.0,1.0,0.33663366336633666,1.0,1.0,1.0,1.0,1.0,0.0,0.5618896484375,0.0074462890625,-0.0516357421875,0.0010986328125,-0.024261474609375,0.017425537109375,A,4,2026-08-24_10-06-59,2026-08-24
0.9965457685664939,1.0,1.0,1.0,0.3564356435643564,1.0,1.0,1.0,1.0,1.0,0.0,0.5601806640625,0.0001220703125,-0.0670166015625,-0.005584716796875,-0.032501220703125,0.012939453125,A,4,2026-08-24_10-06-59,2026-08-24
0.9853195164075993,0.9992565055762082,0.9970631424375918,1.0,0.25742574257425743,1.0,1.0,1.0,1.0,1.0,0.0,0.55908203125,-0.0001220703125,-0.0794677734375,-0.014739990234375,-0.03033447265625,0.00518798828125,A,4,2026-08-24_10-06-59,2026-08-24
0.9930915371329879,1.0,1.0,1.0,0.22772277227722773,1.0,1.0,1.0,1.0,1.0,0.0,0.5643310546875,0.0125732421875,-0.070556640625,-0.01165771484375,-0.025543212890625,0.000396728515625,A,4,2026-08-24_10-06-59,2026-08-24
0.9913644214162349,1.0,1.0,1.0,0.31683168316831684,1.0,1.0,1.0,1.0,1.0,0.0,0.563232421875,0.0042724609375,-0.0753173828125,-0.005767822265625,-0.024169921875,-0.005157470703125,A,4,2026-08-24_10-06-59,2026-08-24
0.9939550949913645,1.0,1.0,1.0,0.3465346534653465,1.0,1.0,1.0,1.0,1.0,0.0,0.557861328125,0.013916015625,-0.0672607421875,-0.014892578125,-0.01641845703125,-0.01043701171875,A,4,2026-08-24_10-06-59,2026-08-24
0.9965457685664939,0.9992565055762082,1.0,1.0,0.3564356435643564,1.0,1.0,1.0,1.0,1.0,0.0,0.563720703125,0.024169921875,-0.0543212890625,-0.00531005859375,-0.010894775390625,-0.0018310546875,A,4,2026-08-24_10-06-59,2026-08-24
0.9853195164075993,1.0,1.0,1.0,0.3465346534653465,1.0,1.0,1.0,1.0,1.0,0.0,0.56591796875,0.0096435546875,-0.0506591796875,-0.003509521484375,-0.01055908203125,0.004669189453125,A,4,2026-08-24_10-06-59,2026-08-24
0.9939550949913645,0.9985130111524163,1.0,1.0,0.3564356435643564,1.0,1.0,1.0,1.0,1.0,0.0,0.5665283203125,0.0052490234375,-0.060791015625,-0.01788330078125,-0.004730224609375,-9.1552734375e-05,A,4,2026-08-24_10-06-59,2026-08-24
0.9913644214162349,0.9970260223048327,0.986784140969163,1.0,0.3564356435643564,1.0,1.0,1.0,1.0,1.0,0.0,0.5650634765625,0.0186767578125,-0.0587158203125,-0.020263671875,0.000579833984375,-0.004302978515625,A,4,2026-08-24_10-06-59,2026-08-24
0.9879101899827288,0.9977695167286246,1.0,1.0,0.297029702970297,1.0,1.0,1.0,1.0,1.0,0.0,0.566162109375,0.018310546875,-0.0604248046875,-0.002044677734375,-0.00390625,-0.003814697265625,A,4,2026-08-24_10-06-59,2026-08-24
0.9879101899827288,0.9977695167286246,1.0,1.0,0.3564356435643564,1.0,1.0,1.0,1.0,1.0,0.0,0.5665283203125,0.0089111328125,-0.05419921875,-0.005828857421875,0.000518798828125,-0.010223388671875,A,4,2026-08-24_10-06-59,2026-08-24
0.9853195164075993,0.9992565055762082,1.0,1.0,0.3564356435643564,1.0,1.0,1.0,1.0,1.0,0.0,0.5650634765625,0.02734375,-0.0572509765625,-0.01544189453125,-0.00537109375,-0.012969970703125,A,4,2026-08-24_10-06-59,2026-08-24
0.9879101899827288,0.995539033457249,0.9897209985315712,1.0,0.32673267326732675,1.0,1.0,1.0,1.0,1.0,0.0,0.5521240234375,0.034912109375,-0.083740234375,-0.02691650390625,-0.0008544921875,-0.004547119140625,A,4,2026-08-24_10-06-59,2026-08-24
0.9879101899827288,0.995539033457249,1.0,1.0,0.3465346534653465,1.0,1.0,1.0,1.0,1.0,0.0,0.55078125,0.045166015625,-0.0811767578125,-0.03387451171875,0.014984130859375,0.022247314453125,A,4,2026-08-24_10-06-59,2026-08-24
0.9913644214162349,1.0,1.0,1.0,0.33663366336633666,1.0,1.0,1.0,1.0,1.0,0.0,0.5650634765625,0.037353515625,-0.0460205078125,-0.025970458984375,0.017364501953125,0.038909912109375,A,4,2026-08-24_10-06-59,2026-08-24
0.9887737478411054,1.0,1.0,1.0,0.3564356435643564,1.0,1.0,1.0,1.0,1.0,0.0,0.5693359375,0.0086669921875,-0.0347900390625,-0.0177001953125,0.008941650390625,0.029571533203125,A,4,2026-08-24_10-06-59,2026-08-24
0.9853195164075993,0.9977695167286246,1.0,1.0,0.3564356435643564,1.0,1.0,1.0,1.0,1.0,0.0,0.5682373046875,0.0018310546875,-0.0338134765625,-0.027984619140625,0.012115478515625,0.0048828125,A,4,2026-08-24_10-06-59,2026-08-24
0.9879101899827288,0.9985130111524163,1.0,1.0,0.32673267326732675,1.0,1.0,1.0,1.0,1.0,0.0,0.5645751953125,0.0111083984375,-0.0284423828125,-0.0059814453125,0.006866455078125,-0.00286865234375,A,4,2026-08-24_10-06-59,2026-08-24
0.9905008635578584,1.0,1.0,1.0,0.31683168316831684,1.0,1.0,1.0,1.0,1.0,0.0,0.5572509765625,-0.009033203125,-0.054931640625,-0.007354736328125,0.0062255859375,-0.010833740234375,A,4,2026-08-24_10-06-59,2026-08-24
0.9939550949913645,0.9992565055762082,1.0,1.0,0.36633663366336633,1.0,1.0,1.0,1.0,1.0,0.0,0.5570068359375,0.0089111328125,-0.055908203125,-0.016021728515625,0.002960205078125,-0.016204833984375,A,4,2026-08-24_10-06-59,2026-08-24
0.9965457685664939,1.0,1.0,1.0,0.3564356435643564,1.0,1.0,1.0,1.0,1.0,0.0,0.5562744140625,0.021484375,-0.05859375,-0.019744873046875,0.003814697265625,-0.009033203125,A,4,2026-08-24_10-06-59,2026-08-24
0.9965457685664939,0.9947955390334573,1.0,1.0,0.3564356435643564,1.0,1.0,1.0,1.0,1.0,0.0,0.5582275390625,0.020751953125,-0.052978515625,-0.021087646484375,0.000640869140625,-0.00604248046875,A,4,2026-08-24_10-06-59,2026-08-24
0.9922279792746114,1.0,1.0,1.0,0.3465346534653465,1.0,1.0,1.0,1.0,1.0,0.0,0.55224609375,0.026611328125,-0.0491943359375,-0.016448974609375,-0.001373291015625,-0.008087158203125,A,4,2026-08-24_10-06-59,2026-08-24
0.9879101899827288,1.0,1.0,1.0,0.3465346534653465,1.0,1.0,1.0,1.0,1.0,0.0,0.56640625,0.0250244140625,-0.0380859375,-0.004150390625,-0.003692626953125,-0.0096435546875,A,4,2026-08-24_10-06-59,2026-08-24
0.9887737478411054,0.9992565055762082,1.0,1.0,0.3564356435643564,1.0,1.0,1.0,1.0,1.0,0.0,0.5667724609375,0.01611328125,-0.04541015625,-0.01153564453125,-0.010162353515625,-0.01806640625,A,4,2026-08-24_10-06-59,2026-08-24
0.9853195164075993,0.9947955390334573,1.0,1.0,0.3069306930693069,1.0,1.0,1.0,1.0,1.0,0.0,0.560791015625,0.0255126953125,-0.0487060546875,-0.024017333984375,-0.016448974609375,-0.021820068359375,A,4,2026-08-24_10-06-59,2026-08-24
0.9853195164075993,0.995539033457249,1.0,1.0,0.31683168316831684,1.0,1.0,1.0,1.0,1.0,0.0,0.5516357421875,0.02587890625,-0.0574951171875,-0.017303466796875,-0.01678466796875,-0.01141357421875,A,4,2026-08-24_10-06-59,2026-08-24
0.9887737478411054,1.0,1.0,1.0,0.3465346534653465,1.0,1.0,1.0,1.0,1.0,0.0,0.5572509765625,0.0191650390625,-0.0574951171875,-0.0274658203125,-0.011505126953125,-0.0137939453125,A,4,2026-08-24_10-06-59,2026-08-24
0.9896373056994818,0.9985130111524163,1.0,1.0,0.3564356435643564,1.0,1.0,1.0,1.0,1.0,0.0,0.552978515625,0.0333251953125,-0.048828125,-0.02276611328125,-0.01629638671875,-0.01409912109375,A,4,2026-08-24_10-06-59,2026-08-24
0.9870466321243523,1.0,1.0,1.0,0.33663366336633666,1.0,1.0,1.0,1.0,1.0,0.0,0.5499267578125,0.026611328125,-0.0439453125,-0.01910400390625,-0.01190185546875,-0.00897216796875,A,4,2026-08-24_10-06-59,2026-08-24
0.9965457685664939,1.0,1.0,1.0,0.3564356435643564,1.0,1.0,1.0,1.0,1.0,0.0,0.554931640625,0.0211181640625,-0.049072265625,-0.023529052734375,-0.010223388671875,-0.011077880859375,A,4,2026-08-24_10-06-59,2026-08-24
0.9879101899827288,0.9970260223048327,1.0,1.0,0.3564356435643564,1.0,1.0,1.0,1.0,1.0,0.0,0.55517578125,0.029296875,-0.049072265625,-0.022979736328125,-0.01300048828125,-0.007965087890625,A,4,2026-08-24_10-06-59,2026-08-24
0.9870466321243523,0.9977695167286246,1.0,1.0,0.32673267326732675,1.0,1.0,1.0,1.0,1.0,0.0,0.55224609375,0.025634765625,-0.0552978515625,-0.020416259765625,-0.0135498046875,-0.0047607421875,A,4,2026-08-24_10-06-59,2026-08-24
1.0,0.9977695167286246,1.0,1.0,0.3564356435643564,1.0,1.0,1.0,1.0,1.0,0.0,0.5511474609375,0.033935546875,-0.0546875,-0.02252197265625,-0.012786865234375,-0.0074462890625,A,4,2026-08-24_10-06-59,2026-08-24
1.0,1.0,1.0,1.0,0.36633663366336633,1.0,1.0,1.0,1.0,1.0,0.0,0.5390625,0.0362548828125,-0.0618896484375,-0.01434326171875,-0.00616455078125,-0.0015869140625,A,4,2026-08-24_10-06-59,2026-08-24
1.0,0.9992565055762082,1.0,1.0,0.3564356435643564,1.0,1.0,1.0,1.0,1.0,0.0,0.5416259765625,0.0400390625,-0.058349609375,-0.0054931640625,0.000152587890625,0.00543212890625,A,4,2026-08-24_10-06-59,2026-08-24
1.0,0.9933085501858736,1.0,1.0,0.3564356435643564,1.0,1.0,1.0,1.0,1.0,0.0,0.54150390625,0.0296630859375,-0.0572509765625,-0.00799560546875,0.0076904296875,0.007568359375,A,4,2026-08-24_10-06-59,2026-08-24
1.0,0.9970260223048327,0.9955947136563876,1.0,0.25742574257425743,1.0,1.0,1.0,1.0,1.0,0.0,0.5413818359375,0.0260009765625,-0.054931640625,-0.006500244140625,0.018829345703125,0.00677490234375,A,4,2026-08-24_10-06-59,2026-08-24
0.04145077720207254,0.0,0.0,0.0,0.21782178217821782,0.0,1.0,1.0,1.0,1.0,0.0,0.53271484375,0.1025390625,-0.1575927734375,-0.007415771484375,-0.000396728515625,-0.0040283203125,B,0,2026-08-24_10-06-59,2026-08-24
0.04145077720207254,0.0,0.0,0.0,0.297029702970297,0.0,1.0,1.0,1.0,1.0,0.0,0.535400390625,0.11669921875,-0.15234375,-0.01220703125,0.003936767578125,-0.00213623046875,B,0,2026-08-24_10-06-59,2026-08-24
0.045768566493955096,0.0,0.0,0.0,0.24752475247524752,0.0,1.0,1.0,1.0,1.0,0.0,0.53955078125,0.1175537109375,-0.1553955078125,-0.014312744140625,-0.004852294921875,0.000335693359375,B,0,2026-08-24_10-06-59,2026-08-24
0.045768566493955096,0.0,0.0,0.0,0.297029702970297,0.0,1.0,1.0,1.0,1.0,0.0,0.5313720703125,0.114501953125,-0.1571044921875,-0.025390625,-0.02008056640625,-0.005584716796875,B,0,2026-08-24_10-06-59,2026-08-24
0.046632124352331605,0.0,0.0,0.0,0.26732673267326734,0.0,1.0,1.0,1.0,1.0,0.0,0.521240234375,0.1248779296875,-0.1546630859375,-0.0323486328125,-0.017486572265625,-0.01153564453125,B,0,2026-08-24_10-06-59,2026-08-24
0.046632124352331605,0.0,0.0,0.0,0.2871287128712871,0.0,1.0,1.0,1.0,1.0,0.0,0.524169921875,0.129638671875,-0.1527099609375,-0.024993896484375,-0.008392333984375,-0.010406494140625,B,0,2026-08-24_10-06-59,2026-08-24
0.0535405872193437,0.0,0.0,0.0,0.22772277227722773,0.0,1.0,1.0,1.0,1.0,0.0,0.51513671875,0.1246337890625,-0.1470947265625,-0.022979736328125,0.003692626953125,-0.00982666015625,B,0,2026-08-24_10-06-59,2026-08-24
0.045768566493955096,0.0,0.0,0.0,0.32673267326732675,0.0,1.0,1.0,1.0,1.0,0.0,0.51904296875,0.1224365234375,-0.1353759765625,-0.01409912109375,0.00347900390625,6.103515625e-05,B,0,2026-08-24_10-06-59,2026-08-24
0.05008635578583765,0.0,0.0,0.0,0.297029702970297,0.0,1.0,1.0,1.0,1.0,0.0,0.526123046875,0.1365966796875,-0.1500244140625,-0.023956298828125,0.0107421875,0.0042724609375,B,0,2026-08-24_10-06-59,2026-08-24
0.054404145077720206,0.0,0.0,0.0,0.18811881188118812,1.0,1.0,1.0,1.0,1.0,0.0,0.531005859375,0.109619140625,-0.135498046875,-0.020904541015625,0.0029296875,0.0135498046875,B,0,2026-08-24_10-06-59,2026-08-24
0.05094991364421416,0.0,0.0,0.0,0.22772277227722773,1.0,1.0,1.0,1.0,1.0,0.0,0.5311279296875,0.104736328125,-0.139892578125,-0.021484375,-0.00164794921875,0.015289306640625,B,0,2026-08-24_10-06-59,2026-08-24
0.045768566493955096,0.0,0.0,0.0,0.21782178217821782,1.0,1.0,1.0,1.0,1.0,0.0,0.527587890625,0.0963134765625,-0.149658203125,-0.020050048828125,0.00177001953125,0.00823974609375,B,0,2026-08-24_10-06-59,2026-08-24
0.046632124352331605,0.0,0.0,0.0,0.22772277227722773,1.0,1.0,1.0,1.0,1.0,0.0,0.5301513671875,0.0958251953125,-0.1373291015625,-0.015350341796875,0.0084228515625,0.001373291015625,B,0,2026-08-24_10-06-59,2026-08-24
0.05094991364421416,0.0,0.0,0.0,0.25742574257425743,0.0,1.0,1.0,1.0,1.0,0.0,0.524658203125,0.1011962890625,-0.1312255859375,-0.012969970703125,0.0052490234375,-0.00537109375,B,0,2026-08-24_10-06-59,2026-08-24
0.04404145077720207,0.0,0.0,0.0,0.25742574257425743,0.0,1.0,1.0,1.0,1.0,0.0,0.5284423828125,0.11572265625,-0.1329345703125,-0.015899658203125,0.0003662109375,-0.009918212890625,B,0,2026-08-24_10-06-59,2026-08-24
0.05094991364421416,0.0,0.0,0.0,0.2871287128712871,0.0,1.0,1.0,1.0,1.0,0.0,0.530029296875,0.1160888671875,-0.1363525390625,-0.015106201171875,-0.010894775390625,-0.012115478515625,B,0,2026-08-24_10-06-59,2026-08-24
0.05008635578583765,0.0,0.0,0.0,0.32673267326732675,0.0,1.0,1.0,1.0,1.0,0.0,0.52294921875,0.127197265625,-0.143798828125,-0.014129638671875,-0.001708984375,-0.012359619140625,B,0,2026-08-24_10-06-59,2026-08-24
0.047495682210708115,0.0007434944237918215,0.0,0.0,0.22772277227722773,0.0,1.0,1.0,1.0,1.0,0.0,0.521728515625,0.123046875,-0.136962890625,-0.0166015625,-0.002777099609375,-0.012176513671875,B,0,2026-08-24_10-06-59,2026-08-24
0.05872193436960276,0.0007434944237918215,0.0,0.0,0.31683168316831684,0.0,1.0,1.0,1.0,1.0,0.0,0.51220703125,0.1221923828125,-0.1297607421875,-0.016448974609375,0.0010986328125,-0.008880615234375,B,0,2026-08-24_10-06-59,2026-08-24
0.05785837651122625,0.0007434944237918215,0.0,0.0,0.297029702970297,0.0,1.0,1.0,1.0,1.0,0.0,0.517822265625,0.1231689453125,-0.1263427734375,-0.018035888671875,0.007354736328125,-0.001312255859375,B,0,2026-08-24_10-06-59,2026-08-24
0.054404145077720206,0.0022304832713754648,0.0,0.0,0.2871287128712871,0.0,1.0,1.0,1.0,1.0,0.0,0.51416015625,0.11962890625,-0.1280517578125,-0.012420654296875,0.01715087890625,0.001617431640625,B,0,2026-08-24_10-06-59,2026-08-24
0.0613126079447323,0.002973977695167286,0.0,0.0,0.2079207920792079,1.0,1.0,1.0,1.0,1.0,0.0,0.509033203125,0.1136474609375,-0.0787353515625,-0.00494384765625,0.0015869140625,-0.011016845703125,B,0,2026-08-24_10-06-59,2026-08-24
0.05699481865284974,0.01412639405204461,0.0014684287812041115,0.0,0.3069306930693069,1.0,1.0,1.0,1.0,1.0,0.0,0.52294921875,0.0966796875,-0.1629638671875,0.03814697265625,0.065826416015625,-0.040191650390625,B,0,2026-08-24_10-06-59,2026-08-24
0.07340241796200346,0.023048327137546468,0.024963289280469897,0.0,0.19801980198019803,1.0,1.0,1.0,1.0,1.0,0.0,0.5362548828125,0.10693359375,-0.10791015625,0.074554443359375,0.0831298828125,-0.044097900390625,B,0,2026-08-24_10-06-59,2026-08-24
0.0690846286701209,0.025278810408921933,0.03671071953010279,0.0,0.2376237623762376,1.0,1.0,1.0,1.0,1.0,0.0,0.5399169921875,0.0888671875,-0.1220703125,0.06097412109375,0.05999755859375,-0.044677734375,B,0,2026-08-24_10-06-59,2026-08-24
0.07081174438687392,0.02825278810408922,0.041116005873715125,0.0,0.2871287128712871,1.0,1.0,1.0,1.0,1.0,0.0,0.5340576171875,0.10791015625,-0.1220703125,0.004608154296875,0.033782958984375,-0.0146484375,B,0,2026-08-24_10-06-59,2026-08-24
0.08290155440414508,0.03940520446096654,0.04698972099853157,0.0,0.18811881188118812,1.0,1.0,1.0,1.0,1.0,0.0,0.5238037109375,0.12060546875,-0.125732421875,-0.041473388671875,-0.0074462890625,0.008087158203125,B,0,2026-08-24_10-06-59,2026-08-24
0.07426597582037997,0.040892193308550186,0.05286343612334802,0.0,0.3069306930693069,1.0,1.0,1.0,1.0,1.0,0.0,0.527587890625,0.134033203125,-0.1204833984375,-0.040313720703125,-0.019134521484375,0.01318359375,B,0,2026-08-24_10-06-59,2026-08-24
0.07858376511226252,0.03717472118959108,0.0381791483113069,0.0,0.16831683168316833,1.0,1.0,1.0,1.0,1.0,0.0,0.5330810546875,0.130859375,-0.1280517578125,-0.020233154296875,0.003509521484375,0.00213623046875,B,0,2026-08-24_10-06-59,2026-08-24
0.07599309153713299,0.04312267657992565,0.04698972099853157,0.0,0.2376237623762376,1.0,1.0,1.0,1.0,1.0,0.0,0.5487060546875,0.1416015625,-0.1168212890625,0.010345458984375,-0.021209716796875,0.005401611328125,B,0,2026-08-24_10-06-59,2026-08-24
0.07426597582037997,0.04014869888475837,0.0513950073421439,0.0,0.1782178217821782,1.0,1.0,1.0,1.0,1.0,0.0,0.538818359375,0.1300048828125,-0.1004638671875,0.003814697265625,-0.03656005859375,0.0164794921875,B,0,2026-08-24_10-06-59,2026-08-24
0.07772020725388601,0.036431226765799254,0.055800293685756244,0.0,0.16831683168316833,1.0,1.0,1.0,1.0,1.0,0.0,0.5223388671875,0.1317138671875,-0.1201171875,-0.048858642578125,-0.03765869140625,0.021881103515625,B,0,2026-08-24_10-06-59,2026-08-24
0.07426597582037997,0.04014869888475837,0.05726872246696035,0.0,0.25742574257425743,1.0,1.0,1.0,1.0,1.0,0.0,0.5384521484375,0.1346435546875,-0.13134765625,-0.054229736328125,-0.02752685546875,0.017547607421875,B,0,2026-08-24_10-06-59,2026-08-24
0.08721934369602763,0.035687732342007436,0.04698972099853157,0.0,0.1782178217821782,0.0,1.0,1.0,1.0,1.0,0.0,0.5367431640625,0.1439208984375,-0.12255859375,-0.0135498046875,-0.01416015625,0.012451171875,B,0,2026-08-24_10-06-59,2026-08-24
0.08981001727115717,0.04014869888475837,0.04552129221732746,0.0,0.2079207920792079,0.0,1.0,1.0,1.0,1.0,0.0,0.52978515625,0.1240234375,-0.1278076171875,0.01446533203125,0.003387451171875,0.0081787109375,B,0,2026-08-24_10-06-59,2026-08-24
0.07772020725388601,0.04014869888475837,0.03671071953010279,0.0,0.13861386138613863,0.0,1.0,1.0,1.0,1.0,0.0,0.53662109375,0.1148681640625,-0.1256103515625,0.00653076171875,0.00714111328125,0.0040283203125,B,0,2026-08-24_10-06-59,2026-08-24
0.08808290155440414,0.041635687732342004,0.04698972099853157,0.0,0.2871287128712871,0.0,1.0,1.0,1.0,1.0,0.0,0.5228271484375,0.10205078125,-0.116455078125,-0.0146484375,-0.014007568359375,0.003265380859375,B,0,2026-08-24_10-06-59,2026-08-24
0.07253886010362694,0.04014869888475837,0.04698972099853157,0.0,0.3069306930693069,0.0,1.0,1.0,1.0,1.0,0.0,0.5269775390625,0.10400390625,-0.1302490234375,-0.034881591796875,-0.01226806640625,6.103515625e-05,B,0,2026-08-24_10-06-59,2026-08-24
0.0846286701208981,0.03717472118959108,0.06020558002936858,0.0,0.25742574257425743,0.0,1.0,1.0,1.0,1.0,0.0,0.5277099609375,0.1121826171875,-0.1314697265625,-0.018524169921875,-0.009002685546875,-0.0072021484375,B,0,2026-08-24_10-06-59,2026-08-24
0.08117443868739206,0.04386617100371747,0.07048458149779736,0.0,0.297029702970297,0.0,1.0,1.0,1.0,1.0,0.0,0.5277099609375,0.1219482421875,-0.1282958984375,-0.009521484375,-0.00482177734375,-0.0126953125,B,0,2026-08-24_10-06-59,2026-08-24
0.0,0.18364312267657992,0.28928046989721,0.2301255230125523,0.4158415841584158,1.0,1.0,1.0,1.0,1.0,0.0,0.52880859375,0.1405029296875,-0.091064453125,-0.006439208984375,-0.012786865234375,0.0125732421875,B,1,2026-08-24_10-06-59,2026-08-24
0.0,0.2037174721189591,0.28046989720998533,0.19665271966527198,0.40594059405940597,0.0,1.0,1.0,1.0,1.0,0.0,0.5396728515625,0.1298828125,-0.0902099609375,-0.001922607421875,-0.014404296875,0.012237548828125,B,1,2026-08-24_10-06-59,2026-08-24
0.0,0.2037174721189591,0.28046989720998533,0.17573221757322174,0.3564356435643564,0.0,1.0,1.0,1.0,1.0,0.0,0.5335693359375,0.1287841796875,-0.0948486328125,0.001495361328125,-0.026214599609375,0.01458740234375,B,1,2026-08-24_10-06-59,2026-08-24
0.0,0.1828996282527881,0.29515418502202645,0.1799163179916318,0.36633663366336633,0.0,1.0,1.0,1.0,1.0,0.0,0.530029296875,0.12158203125,-0.10693359375,-0.005462646484375,-0.01922607421875,0.012176513671875,B,1,2026-08-24_10-06-59,2026-08-24
0.0,0.2037174721189591,0.2922173274596182,0.19246861924686193,0.3564356435643564,0.0,1.0,1.0,1.0,1.0,0.0,0.531494140625,0.1246337890625,-0.1046142578125,-0.00872802734375,-0.0223388671875,0.007171630859375,B,1,2026-08-24_10-06-59,2026-08-24
0.0,0.2037174721189591,0.28193832599118945,0.1589958158995816,0.3564356435643564,0.0,1.0,1.0,1.0,1.0,0.0,0.52734375,0.1309814453125,-0.1005859375,-0.013763427734375,-0.019500732421875,0.000244140625,B,1,2026-08-24_10-06-59,2026-08-24
0.0017271157167530224,0.2037174721189591,0.29515418502202645,0.1589958158995816,0.39603960396039606,0.0,1.0,1.0,1.0,1.0,0.0,0.525146484375,0.142578125,-0.0997314453125,-0.01165771484375,-0.019744873046875,0.0025634765625,B,1,2026-08-24_10-06-59,2026-08-24
0.0069084628670120895,0.2037174721189591,0.2775330396475771,0.15481171548117154,0.33663366336633666,0.0,1.0,1.0,1.0,1.0,0.0,0.52978515625,0.137939453125,-0.106201171875,-0.01080322265625,-0.018524169921875,0.004913330078125,B,1,2026-08-24_10-06-59,2026-08-24
0.004317789291882556,0.2037174721189591,0.28193832599118945,0.17154811715481172,0.36633663366336633,0.0,1.0,1.0,1.0,1.0,0.0,0.524658203125,0.1435546875,-0.11328125,-0.012359619140625,-0.0147705078125,0.01019287109375,B,1,2026-08-24_10-06-59,2026-08-24
0.015544041450777202,0.2037174721189591,0.28928046989721,0.18410041841004185,0.36633663366336633,0.0,1.0,1.0,1.0,1.0,0.0,0.532470703125,0.1378173828125,-0.1070556640625,-0.007659912109375,-0.015472412109375,0.011138916015625,B,1,2026-08-24_10-06-59,2026-08-24
0.01468048359240069,0.2037174721189591,0.28928046989721,0.18410041841004185,0.3564356435643564,0.0,1.0,1.0,1.0,1.0,0.0,0.5283203125,0.1341552734375,-0.1068115234375,-0.007232666015625,-0.0191650390625,0.014129638671875,B,1,2026-08-24_10-06-59,2026-08-24
0.013816925734024179,0.2037174721189591,0.28193832599118945,0.200836820083682,0.3564356435643564,0.0,1.0,1.0,1.0,1.0,0.0,0.52783203125,0.1292724609375,-0.11181640625,-0.013153076171875,-0.009979248046875,0.0142822265625,B,1,2026-08-24_10-06-59,2026-08-24
0.004317789291882556,0.2037174721189591,0.29809104258443464,0.1589958158995816,0.3465346534653465,0.0,1.0,1.0,1.0,1.0,0.0,0.5333251953125,0.1319580078125,-0.1080322265625,-0.016845703125,-0.003265380859375,0.01177978515625,B,1,2026-08-24_10-06-59,2026-08-24
0.0,0.2037174721189591,0.28193832599118945,0.2175732217573222,0.33663366336633666,0.0,1.0,1.0,1.0,1.0,0.0,0.541259765625,0.128173828125,-0.1026611328125,-0.010223388671875,-0.0164794921875,0.010101318359375,B,1,2026-08-24_10-06-59,2026-08-24
0.0051813471502590676,0.20446096654275092,0.2966226138032305,0.2175732217573222,0.36633663366336633,0.0,1.0,1.0,1.0,1.0,0.0,0.537353515625,0.1282958984375,-0.0980224609375,-0.009918212890625,-0.0123291015625,0.0181884765625,B,1,2026-08-24_10-06-59,2026-08-24
0.0,0.2066914498141264,0.3186490455212922,0.18410041841004185,0.36633663366336633,0.0,1.0,1.0,1.0,1.0,0.0,0.534912109375,0.1243896484375,-0.109375,-0.014068603515625,-0.00775146484375,0.018829345703125,B,1,2026-08-24_10-06-59,2026-08-24
0.010362694300518135,0.2037174721189591,0.2922173274596182,0.20502092050209206,0.36633663366336633,0.0,1.0,1.0,1.0,1.0,0.0,0.5440673828125,0.113037109375,-0.1016845703125,-0.007293701171875,-0.001678466796875,0.00634765625,B,1,2026-08-24_10-06-59,2026-08-24
0.006044905008635579,0.2066914498141264,0.2878120411160059,0.17573221757322174,0.36633663366336633,0.0,1.0,1.0,1.0,1.0,0.0,0.5386962890625,0.116455078125,-0.110595703125,-0.000335693359375,-0.00390625,-6.103515625e-05,B,1,2026-08-24_10-06-59,2026-08-24
0.0051813471502590676,0.2037174721189591,0.28928046989721,0.16317991631799164,0.3465346534653465,1.0,1.0,1.0,1.0,1.0,0.0,0.53515625,0.1182861328125,-0.113525390625,-0.000762939453125,-0.0013427734375,-0.00634765625,B,1,2026-08-24_10-06-59,2026-08-24
0.0034542314335060447,0.2066914498141264,0.2966226138032305,0.18828451882845187,0.3564356435643564,1.0,1.0,1.0,1.0,1.0,0.0,0.5377197265625,0.1248779296875,-0.1112060546875,-0.00311279296875,-0.006683349609375,-0.0015869140625,B,1,2026-08-24_10-06-59,2026-08-24
0.011226252158894647,0.2037174721189591,0.28928046989721,0.1589958158995816,0.3465346534653465,1.0,1.0,1.0,1.0,1.0,0.0,0.5299072265625,0.13037109375,-0.09716796875,-0.007659912109375,-0.003204345703125,-0.005096435546875,B,1,2026-08-24_10-06-59,2026-08-24
0.0069084628670120895,0.2037174721189591,0.2834067547723935,0.16736401673640167,0.42574257425742573,1.0,1.0,1.0,1.0,1.0,0.0,0.531494140625,0.132080078125,-0.1016845703125,-0.004150390625,-0.00958251953125,-0.007354736328125,B,1,2026-08-24_10-06-59,2026-08-24
0.0,0.20743494423791822,0.28193832599118945,0.2175732217573222,0.3564356435643564,1.0,1.0,1.0,1.0,1.0,0.0,0.522705078125,0.132080078125,-0.1046142578125,-0.00897216796875,-0.0096435546875,-0.00836181640625,B,1,2026-08-24_10-06-59,2026-08-24
0.007772020725388601,0.20520446096654274,0.28487518355359764,0.17154811715481172,0.44554455445544555,1.0,1.0,1.0,1.0,1.0,0.0,0.52001953125,0.1356201171875,-0.10888671875,-0.0062255859375,-0.011566162109375,-0.00030517578125,B,1,2026-08-24_10-06-59,2026-08-24
0.007772020725388601,0.2037174721189591,0.31277533039647576,0.18410041841004185,0.504950495049505,1.0,1.0,1.0,1.0,1.0,0.0,0.5133056640625,0.13671875,-0.1031494140625,0.004974365234375,-0.01092529296875,0.005584716796875,B,1,2026-08-24_10-06-59,2026-08-24
0.006044905008635579,0.2037174721189591,0.2790014684287812,0.18410041841004185,0.4158415841584158,1.0,1.0,1.0,1.0,1.0,0.0,0.5086669921875,0.1246337890625,-0.107177734375,0.01544189453125,0.010040283203125,-0.00311279296875,B,1,2026-08-24_10-06-59,2026-08-24
0.0034542314335060447,0.2037174721189591,0.29809104258443464,0.2217573221757322,0.37623762376237624,1.0,1.0,1.0,1.0,1.0,0.0,0.52099609375,0.1033935546875,-0.1280517578125,0.013916015625,0.031829833984375,-0.021942138671875,B,1,2026-08-24_10-06-59,2026-08-24
0.0,0.18884758364312268,0.2775330396475771,0.200836820083682,0.26732673267326734,1.0,1.0,1.0,1.0,1.0,0.0,0.5419921875,0.1204833984375,-0.115234375,0.010772705078125,0.03619384765625,-0.020233154296875,B,1,2026-08-24_10-06-59,2026-08-24
0.0,0.2037174721189591,0.32599118942731276,0.2175732217573222,0.38613861386138615,1.0,1.0,1.0,1.0,1.0,0.0,0.5509033203125,0.1278076171875,-0.11474609375,0.000640869140625,0.01361083984375,-0.00439453125,B,1,2026-08-24_10-06-59,2026-08-24
0.0,0.2037174721189591,0.3054331864904552,0.16317991631799164,0.3564356435643564,1.0,1.0,1.0,1.0,1.0,0.0,0.5343017578125,0.1285400390625,-0.1126708984375,-0.0194091796875,-0.00164794921875,0.010955810546875,B,1,2026-08-24_10-06-59,2026-08-24
0.0,0.2037174721189591,0.2966226138032305,0.16317991631799164,0.3564356435643564,1.0,1.0,1.0,1.0,1.0,0.0,0.5362548828125,0.134765625,-0.1087646484375,-0.029266357421875,-0.005157470703125,0.015472412109375,B,1,2026-08-24_10-06-59,2026-08-24
0.0,0.1828996282527881,0.29809104258443464,0.18410041841004185,0.36633663366336633,0.0,1.0,1.0,1.0,1.0,0.0,0.5347900390625,0.133544921875,-0.1004638671875,-0.0169677734375,0.00408935546875,0.005859375,B,1,2026-08-24_10-06-59,2026-08-24
0.0,0.2037174721189591,0.3142437591776799,0.18410041841004185,0.32673267326732675,0.0,1.0,1.0,1.0,1.0,0.0,0.54296875,0.1390380859375,-0.099365234375,0.0030517578125,0.007843017578125,-0.00189208984375,B,1,2026-08-24_10-06-59,2026-08-24
0.0,0.2037174721189591,0.2922173274596182,0.21338912133891214,0.3564356435643564,0.0,1.0,1.0,1.0,1.0,0.0,0.5421142578125,0.135498046875,-0.1031494140625,0.00927734375,0.00146484375,-0.001922607421875,B,1,2026-08-24_10-06-59,2026-08-24
0.0,0.17843866171003717,0.28487518355359764,0.22594142259414227,0.37623762376237624,0.0,1.0,1.0,1.0,1.0,0.0,0.5421142578125,0.13525390625,-0.1065673828125,-0.011932373046875,-0.007659912109375,-0.001495361328125,B,1,2026-08-24_10-06-59,2026-08-24
0.0,0.18884758364312268,0.29955947136563876,0.22594142259414227,0.33663366336633666,0.0,1.0,1.0,1.0,1.0,0.0,0.5406494140625,0.1402587890625,-0.1019287109375,-0.026397705078125,-0.013916015625,0.001312255859375,B,1,2026-08-24_10-06-59,2026-08-24
0.0,0.18661710037174722,0.29809104258443464,0.18410041841004185,0.3564356435643564,0.0,1.0,1.0,1.0,1.0,0.0,0.5399169921875,0.1397705078125,-0.1063232421875,-0.023712158203125,-0.0184326171875,-0.0010986328125,B,1,2026-08-24_10-06-59,2026-08-24
0.0,0.18884758364312268,0.28634361233480177,0.200836820083682,0.3564356435643564,0.0,1.0,1.0,1.0,1.0,0.0,0.5318603515625,0.142578125,-0.1007080078125,-0.017364501953125,-0.0164794921875,-0.003753662109375,B,1,2026-08-24_10-06-59,2026-08-24
0.0,0.2037174721189591,0.28928046989721,0.16317991631799164,0.3465346534653465,0.0,1.0,1.0,1.0,1.0,0.0,0.533447265625,0.140380859375,-0.095458984375,-0.006988525390625,-0.010009765625,-0.0035400390625,B,1,2026-08-24_10-06-59,2026-08-24
0.0,0.18884758364312268,0.2878120411160059,0.19246861924686193,0.39603960396039606,0.0,1.0,1.0,1.0,1.0,0.0,0.5338134765625,0.138427734375,-0.0880126953125,-0.00872802734375,-0.0069580078125,-0.00506591796875,B,1,2026-08-24_10-06-59,2026-08-24
0.0,0.04014869888475837,0.1262848751835536,0.02510460251046025,0.2079207920792079,0.0,1.0,1.0,1.0,1.0,0.0,0.542236328125,0.075439453125,-0.094482421875,-0.0498046875,-0.017822265625,0.00384521484375,B,2,2026-08-24_10-06-59,2026-08-24
0.0,0.0379182156133829,0.13069016152716592,0.06694560669456066,0.19801980198019803,0.0,1.0,1.0,1.0,1.0,0.0,0.53955078125,0.0858154296875,-0.093017578125,-0.051788330078125,-0.011077880859375,0.001739501953125,B,2,2026-08-24_10-06-59,2026-08-24
0.0,0.035687732342007436,0.13362701908957417,0.0794979079497908,0.2871287128712871,0.0,1.0,1.0,1.0,1.0,0.0,0.538330078125,0.079345703125,-0.096435546875,-0.030731201171875,-0.004669189453125,0.0015869140625,B,2,2026-08-24_10-06-59,2026-08-24
0.0,0.04386617100371747,0.1277533039647577,0.05439330543933055,0.24752475247524752,0.0,1.0,1.0,1.0,1.0,0.0,0.548828125,0.068603515625,-0.102783203125,-0.0157470703125,-0.001617431640625,-0.00177001953125,B,2,2026-08-24_10-06-59,2026-08-24
0.0,0.04386617100371747,0.14096916299559473,0.03347280334728033,0.22772277227722773,0.0,1.0,1.0,1.0,1.0,0.0,0.540771484375,0.074462890625,-0.106201171875,-0.010498046875,0.001922607421875,-0.005584716796875,B,2,2026-08-24_10-06-59,2026-08-24
0.0,0.048327137546468404,0.14684287812041116,0.02510460251046025,0.18811881188118812,0.0,1.0,1.0,1.0,1.0,0.0,0.5458984375,0.0726318359375,-0.106689453125,-0.020904541015625,0.00872802734375,-0.01141357421875,B,2,2026-08-24_10-06-59,2026-08-24
0.0,0.048327137546468404,0.14096916299559473,0.029288702928870293,0.2871287128712871,0.0,1.0,1.0,1.0,1.0,0.0,0.545166015625,0.08349609375,-0.0902099609375,-0.01959228515625,0.00433349609375,-0.007659912109375,B,2,2026-08-24_10-06-59,2026-08-24
0.0,0.051301115241635685,0.14243759177679882,0.06694560669456066,0.19801980198019803,0.0,1.0,1.0,1.0,1.0,0.0,0.552490234375,0.0838623046875,-0.091796875,-0.0189208984375,-0.01190185546875,-0.00457763671875,B,2,2026-08-24_10-06-59,2026-08-24
0.0,0.0550185873605948,0.14537444933920704,0.0794979079497908,0.2079207920792079,0.0,1.0,1.0,1.0,1.0,0.0,0.543212890625,0.0882568359375,-0.103271484375,-0.023834228515625,-0.015869140625,-0.005035400390625,B,2,2026-08-24_10-06-59,2026-08-24
0.0,0.058736059479553904,0.13069016152716592,0.04602510460251046,0.24752475247524752,0.0,1.0,1.0,1.0,1.0,0.0,0.5399169921875,0.089111328125,-0.09814453125,-0.02276611328125,-0.009552001953125,-0.005218505859375,B,2,2026-08-24_10-06-59,2026-08-24
0.0,0.058736059479553904,0.14243759177679882,0.07112970711297072,0.16831683168316833,0.0,1.0,1.0,1.0,1.0,0.0,0.548095703125,0.090087890625,-0.099365234375,-0.00250244140625,-0.0048828125,0.001129150390625,B,2,2026-08-24_10-06-59,2026-08-24
0.0,0.060966542750929366,0.14977973568281938,0.05439330543933055,0.26732673267326734,0.0,1.0,1.0,1.0,1.0,0.0,0.550537109375,0.089599609375,-0.097900390625,0.013458251953125,-0.009552001953125,0.011199951171875,B,2,2026-08-24_10-06-59,2026-08-24
0.0,0.06245353159851301,0.1512481644640235,0.11715481171548117,0.2871287128712871,0.0,1.0,1.0,1.0,1.0,0.0,0.549560546875,0.0916748046875,-0.0914306640625,0.011993408203125,-0.035064697265625,0.026824951171875,B,2,2026-08-24_10-06-59,2026-08-24
0.0,0.07063197026022305,0.14831130690161526,0.07531380753138076,0.21782178217821782,0.0,1.0,1.0,1.0,1.0,0.0,0.5357666015625,0.06884765625,-0.0771484375,0.006805419921875,-0.054107666015625,0.03228759765625,B,2,2026-08-24_10-06-59,2026-08-24
0.0,0.07063197026022305,0.15418502202643172,0.08368200836820083,0.2079207920792079,0.0,1.0,1.0,1.0,1.0,0.0,0.53466796875,0.0726318359375,-0.055419921875,0.005645751953125,-0.0611572265625,0.04217529296875,B,2,2026-08-24_10-06-59,2026-08-24
0.0,0.07211895910780669,0.14831130690161526,0.09623430962343096,0.16831683168316833,0.0,1.0,1.0,1.0,1.0,0.0,0.5321044921875,0.0626220703125,-0.064453125,-0.0045166015625,-0.08642578125,0.02447509765625,B,2,2026-08-24_10-06-59,2026-08-24
0.0,0.07211895910780669,0.18649045521292218,0.08786610878661087,0.18811881188118812,0.0,1.0,1.0,1.0,1.0,0.0,0.51806640625,0.07958984375,-0.0765380859375,-0.008575439453125,-0.0789794921875,-0.00115966796875,B,2,2026-08-24_10-06-59,2026-08-24
0.0,0.07286245353159851,0.15565345080763582,0.12133891213389121,0.2079207920792079,0.0,1.0,1.0,1.0,1.0,0.0,0.5380859375,0.1015625,-0.1199951171875,0.032012939453125,-0.04913330078125,0.011993408203125,B,2,2026-08-24_10-06-59,2026-08-24
0.0,0.07286245353159851,0.16886930983847284,0.13389121338912133,0.1782178217821782,0.0,1.0,1.0,1.0,1.0,0.0,0.546630859375,0.0802001953125,-0.1405029296875,0.038787841796875,-0.03515625,0.010772705078125,B,2,2026-08-24_10-06-59,2026-08-24
0.0,0.0758364312267658,0.1644640234948605,0.11297071129707113,0.31683168316831684,0.0,1.0,1.0,1.0,1.0,0.0,0.55029296875,0.0758056640625,-0.13916015625,0.01409912109375,-0.025299072265625,0.006988525390625,B,2,2026-08-24_10-06-59,2026-08-24
0.0,0.0758364312267658,0.17914831130690162,0.09623430962343096,0.16831683168316833,0.0,1.0,1.0,1.0,1.0,0.0,0.5465087890625,0.075439453125,-0.1507568359375,-0.00286865234375,-0.009002685546875,0.01007080078125,B,2,2026-08-24_10-06-59,2026-08-24
0.0,0.0795539033457249,0.18355359765051396,0.100418410041841,0.25742574257425743,0.0,1.0,1.0,1.0,1.0,0.0,0.5380859375,0.072509765625,-0.1583251953125,-0.01434326171875,0.013641357421875,0.003692626953125,B,2,2026-08-24_10-06-59,2026-08-24
0.0,0.07881040892193308,0.17327459618208516,0.08786610878661087,0.2079207920792079,0.0,1.0,1.0,1.0,1.0,0.0,0.5477294921875,0.072998046875,-0.147216796875,-0.01324462890625,0.0406494140625,-0.006256103515625,B,2,2026-08-24_10-06-59,2026-08-24
0.0,0.08475836431226766,0.18061674008810572,0.09623430962343096,0.18811881188118812,0.0,1.0,1.0,1.0,1.0,0.0,0.563720703125,0.07421875,-0.121826171875,0.00714111328125,0.0328369140625,0.002410888671875,B,2,2026-08-24_10-06-59,2026-08-24
0.0,0.08401486988847584,0.17914831130690162,0.08368200836820083,0.26732673267326734,0.0,1.0,1.0,1.0,1.0,0.0,0.5616455078125,0.066650390625,-0.1097412109375,-0.009002685546875,0.00604248046875,0.002044677734375,B,2,2026-08-24_10-06-59,2026-08-24
0.0,0.07881040892193308,0.18355359765051396,0.09623430962343096,0.25742574257425743,0.0,1.0,1.0,1.0,1.0,0.0,0.5489501953125,0.0738525390625,-0.102294921875,-0.03924560546875,-0.0108642578125,-0.004241943359375,B,2,2026-08-24_10-06-59,2026-08-24
0.0,0.08252788104089219,0.1776798825256975,0.0502092050209205,0.26732673267326734,0.0,1.0,1.0,1.0,1.0,0.0,0.54150390625,0.0841064453125,-0.1038818359375,-0.046966552734375,-0.007904052734375,-0.0113525390625,B,2,2026-08-24_10-06-59,2026-08-24
0.0,0.08550185873605948,0.1776798825256975,0.07531380753138076,0.18811881188118812,0.0,1.0,1.0,1.0,1.0,0.0,0.538818359375,0.089111328125,-0.1094970703125,-0.013519287109375,-0.0003662109375,-0.011016845703125,B,2,2026-08-24_10-06-59,2026-08-24
0.0,0.09070631970260223,0.18649045521292218,0.13807531380753138,0.24752475247524752,0.0,1.0,1.0,1.0,1.0,0.0,0.551025390625,0.075927734375,-0.1116943359375,0.008758544921875,0.00054931640625,-0.00762939453125,B,2,2026-08-24_10-06-59,2026-08-24
0.0,0.08847583643122676,0.17180616740088106,0.08368200836820083,0.1782178217821782,0.0,1.0,1.0,1.0,1.0,0.0,0.5426025390625,0.0704345703125,-0.1134033203125,-0.009613037109375,-0.010406494140625,-0.009429931640625,B,2,2026-08-24_10-06-59,2026-08-24
0.0,0.08327137546468401,0.18795888399412627,0.10460251046025104,0.2079207920792079,0.0,1.0,1.0,1.0,1.0,0.0,0.53515625,0.0697021484375,-0.1224365234375,-0.036956787109375,-0.01251220703125,-0.0084228515625,B,2,2026-08-24_10-06-59,2026-08-24
0.0,0.09144981412639405,0.18355359765051396,0.09205020920502092,0.2871287128712871,0.0,1.0,1.0,1.0,1.0,0.0,0.5341796875,0.0802001953125,-0.12109375,-0.04522705078125,-0.0115966796875,-0.0115966796875,B,2,2026-08-24_10-06-59,2026-08-24
0.0,0.09739776951672863,0.17914831130690162,0.100418410041841,0.16831683168316833,0.0,1.0,1.0,1.0,1.0,0.0,0.5224609375,0.0916748046875,-0.111328125,-0.02313232421875,-0.0052490234375,-0.004547119140625,B,2,2026-08-24_10-06-59,2026-08-24
0.0,0.10780669144981413,0.19089574155653452,0.11715481171548117,0.22772277227722773,0.0,1.0,1.0,1.0,1.0,0.0,0.52099609375,0.0804443359375,-0.115478515625,-0.017242431640625,0.000823974609375,0.005279541015625,B,2,2026-08-24_10-06-59,2026-08-24
0.0,0.11970260223048328,0.2011747430249633,0.100418410041841,0.2079207920792079,0.0,1.0,1.0,1.0,1.0,0.0,0.508056640625,0.0877685546875,-0.1182861328125,-0.046722412109375,-0.00555419921875,0.013885498046875,B,2,2026-08-24_10-06-59,2026-08-24
0.0,0.12639405204460966,0.19089574155653452,0.11715481171548117,0.2376237623762376,0.0,1.0,1.0,1.0,1.0,0.0,0.5145263671875,0.1033935546875,-0.12158203125,-0.074737548828125,0.002532958984375,0.02276611328125,B,2,2026-08-24_10-06-59,2026-08-24
0.0,0.14200743494423793,0.1894273127753304,0.100418410041841,0.26732673267326734,0.0,1.0,1.0,1.0,1.0,0.0,0.524658203125,0.1094970703125,-0.108642578125,-0.05206298828125,0.024383544921875,0.03411865234375,B,2,2026-08-24_10-06-59,2026-08-24
0.0,0.14275092936802974,0.18795888399412627,0.13807531380753138,0.24752475247524752,0.0,1.0,1.0,1.0,1.0,0.0,0.538818359375,0.0880126953125,-0.095947265625,-0.03045654296875,0.04376220703125,0.030059814453125,B,2,2026-08-24_10-06-59,2026-08-24
0.0,0.14721189591078068,0.21145374449339208,0.13807531380753138,0.18811881188118812,0.0,1.0,1.0,1.0,1.0,0.0,0.5467529296875,0.085693359375,-0.085693359375,-0.01513671875,0.044219970703125,0.029083251953125,B,2,2026-08-24_10-06-59,2026-08-24
0.0,0.14721189591078068,0.19236417033773862,0.1087866108786611,0.26732673267326734,0.0,1.0,1.0,1.0,1.0,0.0,0.554443359375,0.071044921875,-0.0799560546875,-0.031646728515625,0.033203125,0.031524658203125,B,2,2026-08-24_10-06-59,2026-08-24
0.0,0.22602230483271377,0.13803230543318648,0.1589958158995816,0.3465346534653465,0.0,1.0,1.0,1.0,1.0,0.0,0.544921875,0.0699462890625,-0.1121826171875,-0.0186767578125,-0.021453857421875,0.0279541015625,B,3,2026-08-24_10-06-59,2026-08-24
0.0,0.22602230483271377,0.11747430249632893,0.13807531380753138,0.24752475247524752,0.0,1.0,1.0,1.0,1.0,0.0,0.548095703125,0.0548095703125,-0.120361328125,0.002777099609375,-0.016815185546875,0.013824462890625,B,3,2026-08-24_10-06-59,2026-08-24
0.0,0.22602230483271377,0.11600587371512482,0.13807531380753138,0.33663366336633666,0.0,1.0,1.0,1.0,1.0,0.0,0.5423583984375,0.0416259765625,-0.1171875,0.006591796875,0.006072998046875,0.000152587890625,B,3,2026-08-24_10-06-59,2026-08-24
0.0,0.22527881040892192,0.11894273127753303,0.09205020920502092,0.3465346534653465,0.0,1.0,1.0,1.0,1.0,0.0,0.550048828125,0.0477294921875,-0.1337890625,-0.005126953125,0.0167236328125,-0.00408935546875,B,3,2026-08-24_10-06-59,2026-08-24
0.0,0.22825278810408922,0.12922173274596183,0.13389121338912133,0.297029702970297,0.0,1.0,1.0,1.0,1.0,0.0,0.5562744140625,0.0404052734375,-0.1256103515625,-0.02020263671875,0.014678955078125,-0.007598876953125,B,3,2026-08-24_10-06-59,2026-08-24
0.0,0.22602230483271377,0.1145374449339207,0.11715481171548117,0.24752475247524752,0.0,1.0,1.0,1.0,1.0,0.0,0.548583984375,0.052490234375,-0.115478515625,-0.036102294921875,0.01593017578125,-0.01202392578125,B,3,2026-08-24_10-06-59,2026-08-24
0.0,0.23048327137546468,0.12187958883994127,0.11297071129707113,0.3465346534653465,0.0,1.0,1.0,1.0,1.0,0.0,0.548583984375,0.068115234375,-0.108154296875,-0.031036376953125,0.0247802734375,-0.008575439453125,B,3,2026-08-24_10-06-59,2026-08-24
0.0,0.2312267657992565,0.12481644640234948,0.09205020920502092,0.3564356435643564,0.0,1.0,1.0,1.0,1.0,0.0,0.5426025390625,0.072265625,-0.101806640625,-0.02081298828125,0.02801513671875,-0.01123046875,B,3,2026-08-24_10-06-59,2026-08-24
0.0,0.2275092936802974,0.12481644640234948,0.1297071129707113,0.3564356435643564,0.0,1.0,1.0,1.0,1.0,0.0,0.549560546875,0.0758056640625,-0.103271484375,-0.020538330078125,0.0240478515625,-0.01593017578125,B,3,2026-08-24_10-06-59,2026-08-24
0.0,0.22304832713754646,0.13509544787077826,0.14644351464435146,0.32673267326732675,0.0,1.0,1.0,1.0,1.0,0.0,0.544677734375,0.08154296875,-0.098388671875,-0.00830078125,0.016510009765625,-0.00653076171875,B,3,2026-08-24_10-06-59,2026-08-24
0.0,0.22676579925650558,0.12187958883994127,0.11297071129707113,0.36633663366336633,0.0,1.0,1.0,1.0,1.0,0.0,0.5491943359375,0.0679931640625,-0.0997314453125,-0.005126953125,0.003997802734375,-0.001861572265625,B,3,2026-08-24_10-06-59,2026-08-24
0.0,0.22527881040892192,0.12481644640234948,0.15481171548117154,0.22772277227722773,0.0,1.0,1.0,1.0,1.0,0.0,0.5450439453125,0.0596923828125,-0.1015625,-0.010101318359375,-0.0030517578125,-0.0068359375,B,3,2026-08-24_10-06-59,2026-08-24
0.0,0.2245353159851301,0.13215859030837004,0.13389121338912133,0.2871287128712871,0.0,1.0,1.0,1.0,1.0,0.0,0.55029296875,0.06591796875,-0.10107421875,-0.01934814453125,0.003753662109375,-0.006988525390625,B,3,2026-08-24_10-06-59,2026-08-24
0.0,0.22602230483271377,0.12334801762114538,0.1589958158995816,0.3564356435643564,0.0,1.0,1.0,1.0,1.0,0.0,0.539306640625,0.0670166015625,-0.099853515625,-0.002105712890625,-0.000396728515625,-0.0029296875,B,3,2026-08-24_10-06-59,2026-08-24
0.0,0.21933085501858737,0.13215859030837004,0.1589958158995816,0.32673267326732675,0.0,1.0,1.0,1.0,1.0,0.0,0.542724609375,0.0655517578125,-0.0830078125,-0.009552001953125,-0.005096435546875,-0.011016845703125,B,3,2026-08-24_10-06-59,2026-08-24
0.0,0.22825278810408922,0.11894273127753303,0.08368200836820083,0.33663366336633666,0.0,1.0,1.0,1.0,1.0,0.0,0.5445556640625,0.0704345703125,-0.0911865234375,-0.018096923828125,-0.007843017578125,-0.015350341796875,B,3,2026-08-24_10-06-59,2026-08-24
0.0,0.22304832713754646,0.12041116005873716,0.11297071129707113,0.297029702970297,0.0,1.0,1.0,1.0,1.0,0.0,0.5313720703125,0.08056640625,-0.095703125,-0.020477294921875,0.004241943359375,-0.016387939453125,B,3,2026-08-24_10-06-59,2026-08-24
0.0,0.22156133828996283,0.11747430249632893,0.13389121338912133,0.297029702970297,0.0,1.0,1.0,1.0,1.0,0.0,0.5428466796875,0.0784912109375,-0.0982666015625,-0.01812744140625,0.010040283203125,-0.013275146484375,B,3,2026-08-24_10-06-59,2026-08-24
0.0,0.2200743494423792,0.09985315712187959,0.10460251046025104,0.27722772277227725,0.0,1.0,1.0,1.0,1.0,0.0,0.538818359375,0.079833984375,-0.0953369140625,-0.012115478515625,0.005126953125,-0.008636474609375,B,3,2026-08-24_10-06-59,2026-08-24
0.0,0.21561338289962825,0.11894273127753303,0.12133891213389121,0.3465346534653465,0.0,1.0,1.0,1.0,1.0,0.0,0.542724609375,0.073974609375,-0.1015625,-0.015777587890625,0.009002685546875,-0.00567626953125,B,3,2026-08-24_10-06-59,2026-08-24
0.0,0.21486988847583643,0.12187958883994127,0.12133891213389121,0.3465346534653465,0.0,1.0,1.0,1.0,1.0,0.0,0.550048828125,0.0777587890625,-0.1025390625,-0.0150146484375,0.005950927734375,-0.00048828125,B,3,2026-08-24_10-06-59,2026-08-24
0.0,0.2171003717472119,0.13656387665198239,0.1297071129707113,0.3564356435643564,0.0,1.0,1.0,1.0,1.0,0.0,0.5491943359375,0.083251953125,-0.0958251953125,-0.0115966796875,0.001678466796875,-0.002227783203125,B,3,2026-08-24_10-06-59,2026-08-24
0.0,0.21486988847583643,0.12481644640234948,0.06694560669456066,0.26732673267326734,0.0,1.0,1.0,1.0,1.0,0.0,0.5518798828125,0.087890625,-0.091064453125,-0.008270263671875,0.00189208984375,-0.007110595703125,B,3,2026-08-24_10-06-59,2026-08-24
0.0,0.21412639405204462,0.11747430249632893,0.09205020920502092,0.2871287128712871,0.0,1.0,1.0,1.0,1.0,0.0,0.5521240234375,0.0927734375,-0.0908203125,0.0029296875,-0.00384521484375,-0.006134033203125,B,3,2026-08-24_10-06-59,2026-08-24
0.0,0.21486988847583643,0.11747430249632893,0.10460251046025104,0.25742574257425743,0.0,1.0,1.0,1.0,1.0,0.0,0.54833984375,0.08447265625,-0.090576171875,0.00537109375,-0.010162353515625,-0.005035400390625,B,3,2026-08-24_10-06-59,2026-08-24
0.0,0.21412639405204462,0.12041116005873716,0.029288702928870293,0.3564356435643564,0.0,1.0,1.0,1.0,1.0,0.0,0.5406494140625,0.077880859375,-0.08349609375,-0.00250244140625,-0.012176513671875,-0.010498046875,B,3,2026-08-24_10-06-59,2026-08-24
0.0,0.21189591078066913,0.09397944199706314,0.07531380753138076,0.2871287128712871,0.0,1.0,1.0,1.0,1.0,0.0,0.5406494140625,0.07177734375,-0.0833740234375,-0.01055908203125,-0.0115966796875,-0.01177978515625,B,3,2026-08-24_10-06-59,2026-08-24
0.0,0.21486988847583643,0.1013215859030837,0.11297071129707113,0.3069306930693069,0.0,1.0,1.0,1.0,1.0,0.0,0.5504150390625,0.0743408203125,-0.08984375,0.00042724609375,-0.02069091796875,-0.00372314453125,B,3,2026-08-24_10-06-59,2026-08-24
0.0,0.2104089219330855,0.11600587371512482,0.08786610878661087,0.3564356435643564,0.0,1.0,1.0,1.0,1.0,0.0,0.5465087890625,0.0626220703125,-0.0989990234375,0.007080078125,-0.021759033203125,-0.00018310546875,B,3,2026-08-24_10-06-59,2026-08-24
0.0,0.20743494423791822,0.09397944199706314,0.04602510460251046,0.297029702970297,0.0,1.0,1.0,1.0,1.0,0.0,0.5445556640625,0.0576171875,-0.1055908203125,0.002593994140625,-0.0172119140625,-0.001800537109375,B,3,2026-08-24_10-06-59,2026-08-24
0.0,0.20966542750929368,0.11894273127753303,0.08368200836820083,0.3564356435643564,0.0,1.0,1.0,1.0,1.0,0.0,0.5478515625,0.061767578125,-0.1075439453125,-0.001556396484375,-0.010772705078125,-0.00689697265625,B,3,2026-08-24_10-06-59,2026-08-24
0.0,0.21115241635687731,0.11747430249632893,0.10460251046025104,0.3564356435643564,0.0,1.0,1.0,1.0,1.0,0.0,0.5374755859375,0.0811767578125,-0.09765625,-0.00439453125,-0.01373291015625,-0.004119873046875,B,3,2026-08-24_10-06-59,2026-08-24
0.0,0.2104089219330855,0.11013215859030837,0.0794979079497908,0.3564356435643564,0.0,1.0,1.0,1.0,1.0,0.0,0.53076171875,0.0888671875,-0.1029052734375,0.001220703125,-0.008392333984375,0.004913330078125,B,3,2026-08-24_10-06-59,2026-08-24
0.0,0.21263940520446098,0.1013215859030837,0.0502092050209205,0.3465346534653465,0.0,1.0,1.0,1.0,1.0,0.0,0.530029296875,0.0838623046875,-0.0909423828125,0.011383056640625,-0.00213623046875,0.006439208984375,B,3,2026-08-24_10-06-59,2026-08-24
0.0,0.21115241635687731,0.11747430249632893,0.06694560669456066,0.3564356435643564,0.0,1.0,1.0,1.0,1.0,0.0,0.5311279296875,0.066650390625,-0.1031494140625,0.01416015625,0.005279541015625,-0.006866455078125,B,3,2026-08-24_10-06-59,2026-08-24
0.0,0.2133828996282528,0.11894273127753303,0.04184100418410042,0.3465346534653465,0.0,1.0,1.0,1.0,1.0,0.0,0.5423583984375,0.0731201171875,-0.1051025390625,0.006591796875,0.012176513671875,-0.01312255859375,B,3,2026-08-24_10-06-59,2026-08-24
0.0,0.2104089219330855,0.10866372980910426,0.1506276150627615,0.3564356435643564,0.0,1.0,1.0,1.0,1.0,0.0,0.5506591796875,0.0750732421875,-0.1044921875,0.000885009765625,0.00311279296875,-0.00482177734375,B,3,2026-08-24_10-06-59,2026-08-24
0.0,0.20743494423791822,0.08663729809104258,0.02510460251046025,0.3564356435643564,0.0,1.0,1.0,1.0,1.0,0.0,0.547119140625,0.0848388671875,-0.1024169921875,0.002685546875,-0.01385498046875,0.01409912109375,B,3,2026-08-24_10-06-59,2026-08-24
0.0,0.21115241635687731,0.1027900146842878,0.11297071129707113,0.3564356435643564,0.0,1.0,1.0,1.0,1.0,0.0,0.53759765625,0.0692138671875,-0.10009765625,-0.02423095703125,-0.016143798828125,0.0078125,B,3,2026-08-24_10-06-59,2026-08-24
0.0,0.21412639405204462,0.09397944199706314,0.08368200836820083,0.3564356435643564,0.0,1.0,1.0,1.0,1.0,0.0,0.5302734375,0.09228515625,-0.0928955078125,-0.025726318359375,-0.00726318359375,0.006805419921875,B,3,2026-08-24_10-06-59,2026-08-24
0.14507772020725387,0.34572490706319703,0.3891336270190896,0.1799163179916318,0.2871287128712871,0.0,1.0,1.0,1.0,1.0,0.0,0.537841796875,0.12109375,-0.07666015625,-0.01544189453125,-0.01824951171875,0.012725830078125,B,4,2026-08-24_10-06-59,2026-08-24
0.14421416234887738,0.3338289962825279,0.3788546255506608,0.16736401673640167,0.297029702970297,0.0,1.0,1.0,1.0,1.0,0.0,0.5341796875,0.12548828125,-0.0755615234375,-0.0042724609375,-0.006988525390625,0.011932373046875,B,4,2026-08-24_10-06-59,2026-08-24
0.14162348877374784,0.3345724907063197,0.3832599118942731,0.17154811715481172,0.3069306930693069,0.0,1.0,1.0,1.0,1.0,0.0,0.538330078125,0.1239013671875,-0.0814208984375,0.00970458984375,-0.01336669921875,0.013519287109375,B,4,2026-08-24_10-06-59,2026-08-24
0.14507772020725387,0.3338289962825279,0.3788546255506608,0.18828451882845187,0.31683168316831684,0.0,1.0,1.0,1.0,1.0,0.0,0.53515625,0.1141357421875,-0.078369140625,-0.009796142578125,-0.011383056640625,0.00408935546875,B,4,2026-08-24_10-06-59,2026-08-24
0.14335060449050085,0.33011152416356876,0.37738619676945667,0.16317991631799164,0.3465346534653465,0.0,1.0,1.0,1.0,1.0,0.0,0.5311279296875,0.1287841796875,-0.0791015625,-0.01226806640625,-0.00189208984375,0.0078125,B,4,2026-08-24_10-06-59,2026-08-24
0.14162348877374784,0.3338289962825279,0.3891336270190896,0.1589958158995816,0.31683168316831684,0.0,1.0,1.0,1.0,1.0,0.0,0.5450439453125,0.125,-0.07470703125,0.00128173828125,-0.007415771484375,0.006622314453125,B,4,2026-08-24_10-06-59,2026-08-24
0.14766839378238342,0.3338289962825279,0.3876651982378855,0.14644351464435146,0.25742574257425743,0.0,1.0,1.0,1.0,1.0,0.0,0.5439453125,0.1256103515625,-0.073486328125,0.001434326171875,-0.00872802734375,0.006683349609375,B,4,2026-08-24_10-06-59,2026-08-24
0.14421416234887738,0.33308550185873603,0.39060205580029367,0.1589958158995816,0.33663366336633666,0.0,1.0,1.0,1.0,1.0,0.0,0.5430908203125,0.117431640625,-0.0810546875,-0.009796142578125,-0.00445556640625,0.005462646484375,B,4,2026-08-24_10-06-59,2026-08-24
0.14075993091537134,0.33605947955390336,0.3788546255506608,0.16736401673640167,0.33663366336633666,0.0,1.0,1.0,1.0,1.0,0.0,0.5506591796875,0.123291015625,-0.08447265625,-0.011810302734375,-0.0074462890625,0.00836181640625,B,4,2026-08-24_10-06-59,2026-08-24
0.15112262521588946,0.3338289962825279,0.39060205580029367,0.1799163179916318,0.31683168316831684,0.0,1.0,1.0,1.0,1.0,0.0,0.541259765625,0.1185302734375,-0.08447265625,9.1552734375e-05,-0.009521484375,0.005950927734375,B,4,2026-08-24_10-06-59,2026-08-24
0.15198618307426598,0.3338289962825279,0.3920704845814978,0.200836820083682,0.3069306930693069,0.0,1.0,1.0,1.0,1.0,0.0,0.54150390625,0.111328125,-0.08642578125,0.0029296875,-0.002716064453125,0.0020751953125,B,4,2026-08-24_10-06-59,2026-08-24
0.15630397236614854,0.3345724907063197,0.38472834067547723,0.1589958158995816,0.22772277227722773,0.0,1.0,1.0,1.0,1.0,0.0,0.5439453125,0.1107177734375,-0.0875244140625,-0.003875732421875,0.0020751953125,-0.00347900390625,B,4,2026-08-24_10-06-59,2026-08-24
0.15716753022452504,0.3345724907063197,0.3964757709251101,0.1799163179916318,0.2871287128712871,0.0,1.0,1.0,1.0,1.0,0.0,0.54443359375,0.118896484375,-0.076904296875,-0.01202392578125,-0.00555419921875,-0.0010986328125,B,4,2026-08-24_10-06-59,2026-08-24
0.15544041450777202,0.3338289962825279,0.3935389133627019,0.17573221757322174,0.2376237623762376,0.0,1.0,1.0,1.0,1.0,0.0,0.5277099609375,0.121826171875,-0.068115234375,-0.010040283203125,0.00238037109375,-0.002593994140625,B,4,2026-08-24_10-06-59,2026-08-24
0.15716753022452504,0.3345724907063197,0.39794419970631423,0.18410041841004185,0.297029702970297,0.0,1.0,1.0,1.0,1.0,0.0,0.52734375,0.1173095703125,-0.0701904296875,0.004302978515625,0.031829833984375,-0.0201416015625,B,4,2026-08-24_10-06-59,2026-08-24
0.1614853195164076,0.3405204460966543,0.4654919236417034,0.1589958158995816,0.26732673267326734,0.0,1.0,1.0,1.0,1.0,0.0,0.5400390625,0.115478515625,-0.076171875,0.032867431640625,0.064849853515625,-0.037994384765625,B,4,2026-08-24_10-06-59,2026-08-24
0.16666666666666666,0.34349442379182155,0.38472834067547723,0.16317991631799164,0.33663366336633666,0.0,1.0,1.0,1.0,1.0,0.0,0.5589599609375,0.1153564453125,-0.0848388671875,0.043853759765625,0.0445556640625,-0.038299560546875,B,4,2026-08-24_10-06-59,2026-08-24
0.16839378238341968,0.3479553903345725,0.42290748898678415,0.17573221757322174,0.31683168316831684,0.0,1.0,1.0,1.0,1.0,0.0,0.5513916015625,0.126953125,-0.053955078125,0.017578125,0.02386474609375,-0.017303466796875,B,4,2026-08-24_10-06-59,2026-08-24
0.17616580310880828,0.3479553903345725,0.4155653450807636,0.20502092050209206,0.25742574257425743,0.0,1.0,1.0,1.0,1.0,0.0,0.54248046875,0.141357421875,-0.051513671875,-0.027252197265625,-0.000762939453125,0.013275146484375,B,4,2026-08-24_10-06-59,2026-08-24
0.17616580310880828,0.3509293680297398,0.4199706314243759,0.1799163179916318,0.22772277227722773,0.0,1.0,1.0,1.0,1.0,0.0,0.530517578125,0.1494140625,-0.0439453125,-0.04364013671875,-0.01715087890625,0.02490234375,B,4,2026-08-24_10-06-59,2026-08-24
0.17616580310880828,0.3449814126394052,0.4155653450807636,0.20502092050209206,0.31683168316831684,0.0,1.0,1.0,1.0,1.0,0.0,0.5220947265625,0.1397705078125,-0.056884765625,-0.013214111328125,-0.0074462890625,0.020233154296875,B,4,2026-08-24_10-06-59,2026-08-24
0.17271157167530224,0.3524163568773234,0.40822320117474303,0.20920502092050208,0.22772277227722773,0.0,1.0,1.0,1.0,1.0,0.0,0.53369140625,0.13427734375,-0.06494140625,0.021820068359375,0.0076904296875,0.012725830078125,B,4,2026-08-24_10-06-59,2026-08-24
0.17443868739205526,0.35018587360594794,0.42290748898678415,0.20920502092050208,0.3069306930693069,0.0,1.0,1.0,1.0,1.0,0.0,0.5313720703125,0.1146240234375,-0.0732421875,0.0345458984375,0.015350341796875,0.008575439453125,B,4,2026-08-24_10-06-59,2026-08-24
0.17875647668393782,0.3524163568773234,0.41409691629955947,0.16317991631799164,0.24752475247524752,0.0,1.0,1.0,1.0,1.0,1.0,0.536376953125,0.1038818359375,-0.08447265625,0.00848388671875,0.023468017578125,0.004730224609375,B,4,2026-08-24_10-06-59,2026-08-24
0.18307426597582038,0.34721189591078067,0.41262848751835535,0.17154811715481172,0.32673267326732675,0.0,1.0,1.0,1.0,1.0,1.0,0.5455322265625,0.106689453125,-0.0745849609375,-0.006256103515625,-0.01214599609375,0.009490966796875,B,4,2026-08-24_10-06-59,2026-08-24
0.18134715025906736,0.3546468401486989,0.4155653450807636,0.1799163179916318,0.3069306930693069,0.0,1.0,1.0,1.0,1.0,0.0,0.5369873046875,0.115234375,-0.078857421875,-0.015838623046875,-0.021087646484375,0.01025390625,B,4,2026-08-24_10-06-59,2026-08-24
0.1770293609671848,0.3576208178438662,0.4155653450807636,0.16317991631799164,0.3564356435643564,0.0,1.0,1.0,1.0,1.0,0.0,0.53515625,0.109619140625,-0.0804443359375,-0.0186767578125,-0.008453369140625,-0.00128173828125,B,4,2026-08-24_10-06-59,2026-08-24
0.18134715025906736,0.35390334572490706,0.40381791483113066,0.1799163179916318,0.19801980198019803,0.0,1.0,1.0,1.0,1.0,0.0,0.53515625,0.131591796875,-0.0618896484375,-0.004913330078125,0.007293701171875,-0.00665283203125,B,4,2026-08-24_10-06-59,2026-08-24
0.17875647668393782,0.3576208178438662,0.41262848751835535,0.18828451882845187,0.33663366336633666,0.0,1.0,1.0,1.0,1.0,0.0,0.5458984375,0.12255859375,-0.057373046875,0.020263671875,0.0072021484375,0.004241943359375,B,4,2026-08-24_10-06-59,2026-08-24
0.18307426597582038,0.3553903345724907,0.40822320117474303,0.18828451882845187,0.297029702970297,0.0,1.0,1.0,1.0,1.0,0.0,0.5458984375,0.1116943359375,-0.0589599609375,0.015625,0.003753662109375,0.002044677734375,B,4,2026-08-24_10-06-59,2026-08-24
0.1848013816925734,0.3591078066914498,0.40822320117474303,0.16736401673640167,0.2871287128712871,0.0,1.0,1.0,1.0,1.0,0.0,0.5482177734375,0.12158203125,-0.0633544921875,0.004058837890625,-0.0089111328125,0.011444091796875,B,4,2026-08-24_10-06-59,2026-08-24
0.18307426597582038,0.3620817843866171,0.41409691629955947,0.1589958158995816,0.32673267326732675,0.0,1.0,1.0,1.0,1.0,0.0,0.5400390625,0.10888671875,-0.0577392578125,-0.0096435546875,-0.024658203125,0.010955810546875,B,4,2026-08-24_10-06-59,2026-08-24
0.18911917098445596,0.35985130111524166,0.42143906020558003,0.16736401673640167,0.32673267326732675,0.0,1.0,1.0,1.0,1.0,0.0,0.539794921875,0.1231689453125,-0.05419921875,-0.009765625,-0.0203857421875,0.010894775390625,B,4,2026-08-24_10-06-59,2026-08-24
0.1848013816925734,0.35985130111524166,0.42290748898678415,0.2384937238493724,0.21782178217821782,0.0,1.0,1.0,1.0,1.0,0.0,0.532958984375,0.1175537109375,-0.07861328125,0.00390625,-0.00238037109375,0.004302978515625,B,4,2026-08-24_10-06-59,2026-08-24
0.18566493955094993,0.3620817843866171,0.42584434654919234,0.22594142259414227,0.25742574257425743,0.0,1.0,1.0,1.0,1.0,0.0,0.5452880859375,0.130126953125,-0.0673828125,0.009490966796875,0.01239013671875,0.006988525390625,B,4,2026-08-24_10-06-59,2026-08-24
0.19602763385146804,0.3680297397769517,0.4302496328928047,0.22594142259414227,0.2079207920792079,0.0,1.0,1.0,1.0,1.0,0.0,0.5440673828125,0.123046875,-0.0631103515625,0.01202392578125,0.00213623046875,0.010467529296875,B,4,2026-08-24_10-06-59,2026-08-24
0.18825561312607944,0.36951672862453533,0.4302496328928047,0.2217573221757322,0.3465346534653465,0.0,1.0,1.0,1.0,1.0,1.0,0.5361328125,0.11865234375,-0.0670166015625,0.0003662109375,-0.006011962890625,0.013458251953125,B,4,2026-08-24_10-06-59,2026-08-24
0.19343696027633853,0.36654275092936806,0.43171806167400884,0.2175732217573222,0.2079207920792079,0.0,1.0,1.0,1.0,1.0,0.0,0.5408935546875,0.1219482421875,-0.067138671875,-0.008697509765625,-0.007232666015625,0.014984130859375,B,4,2026-08-24_10-06-59,2026-08-24
0.19343696027633853,0.37174721189591076,0.4419970631424376,0.24267782426778242,0.24752475247524752,0.0,1.0,1.0,1.0,1.0,0.0,0.546630859375,0.11865234375,-0.064208984375,-0.008331298828125,-0.003448486328125,0.011993408203125,B,4,2026-08-24_10-06-59,2026-08-24
0.19343696027633853,0.36728624535315985,0.42731277533039647,0.22594142259414227,0.21782178217821782,0.0,1.0,1.0,1.0,1.0,0.0,0.551025390625,0.11865234375,-0.0599365234375,0.00445556640625,-0.0018310546875,0.010528564453125,B,4,2026-08-24_10-06-59,2026-08-24
0.8557858376511226,0.9204460966542751,0.9368575624082232,0.7740585774058577,0.24752475247524752,1.0,1.0,1.0,1.0,1.0,0.0,0.47412109375,-0.1053466796875,-0.2659912109375,-0.02984619140625,0.005767822265625,-0.008636474609375,C,0,2026-08-24_10-06-59,2026-08-24
0.8592400690846287,0.9263940520446097,0.9295154185022027,0.799163179916318,0.2871287128712871,1.0,1.0,1.0,1.0,1.0,0.0,0.472900390625,-0.1102294921875,-0.271728515625,-0.033111572265625,-0.0093994140625,-0.005340576171875,C,0,2026-08-24_10-06-59,2026-08-24
0.8618307426597582,0.9137546468401487,0.9368575624082232,0.803347280334728,0.22772277227722773,1.0,1.0,1.0,1.0,1.0,0.0,0.467529296875,-0.0888671875,-0.260986328125,-0.02410888671875,-0.01806640625,-0.002288818359375,C,0,2026-08-24_10-06-59,2026-08-24
0.8566493955094991,0.9234200743494424,0.9353891336270191,0.8284518828451883,0.2079207920792079,1.0,1.0,1.0,1.0,1.0,0.0,0.4659423828125,-0.0955810546875,-0.27392578125,-0.025970458984375,-0.01727294921875,0.003204345703125,C,0,2026-08-24_10-06-59,2026-08-24
0.8488773747841105,0.9197026022304833,0.9265785609397944,0.7907949790794979,0.22772277227722773,1.0,1.0,1.0,1.0,1.0,0.0,0.4666748046875,-0.09375,-0.2635498046875,-0.027679443359375,-0.01007080078125,0.0037841796875,C,0,2026-08-24_10-06-59,2026-08-24
0.8557858376511226,0.9152416356877323,0.9324522760646109,0.7656903765690377,0.297029702970297,1.0,1.0,1.0,1.0,1.0,0.0,0.4716796875,-0.10205078125,-0.253173828125,-0.021026611328125,-0.01312255859375,-0.00482177734375,C,0,2026-08-24_10-06-59,2026-08-24
0.8471502590673575,0.9211895910780669,0.947136563876652,0.8284518828451883,0.2376237623762376,1.0,1.0,1.0,1.0,1.0,0.0,0.474365234375,-0.1072998046875,-0.267578125,-0.02069091796875,-0.0133056640625,-0.004913330078125,C,0,2026-08-24_10-06-59,2026-08-24
0.8601036269430051,0.9278810408921933,0.9456681350954479,0.8117154811715481,0.2079207920792079,1.0,1.0,1.0,1.0,1.0,0.0,0.47314453125,-0.115966796875,-0.270751953125,-0.030029296875,-0.01373291015625,-0.0035400390625,C,0,2026-08-24_10-06-59,2026-08-24
0.8488773747841105,0.9159851301115242,0.9397944199706314,0.7615062761506276,0.2871287128712871,1.0,1.0,1.0,1.0,1.0,0.0,0.4732666015625,-0.1131591796875,-0.258056640625,-0.02447509765625,-0.01605224609375,-0.002166748046875,C,0,2026-08-24_10-06-59,2026-08-24
0.8549222797927462,0.9234200743494424,0.9251101321585903,0.7698744769874477,0.22772277227722773,1.0,1.0,1.0,1.0,1.0,0.0,0.47021484375,-0.13037109375,-0.2686767578125,-0.0185546875,-0.0101318359375,-0.009246826171875,C,0,2026-08-24_10-06-59,2026-08-24
0.8549222797927462,0.916728624535316,0.9280469897209985,0.799163179916318,0.2376237623762376,1.0,1.0,1.0,1.0,1.0,0.0,0.47021484375,-0.124267578125,-0.263427734375,-0.00201416015625,-0.003204345703125,-0.0186767578125,C,0,2026-08-24_10-06-59,2026-08-24
0.8523316062176166,0.9204460966542751,0.9412628487518355,0.7740585774058577,0.1782178217821782,1.0,1.0,1.0,1.0,1.0,0.0,0.4696044921875,-0.125,-0.2623291015625,-0.00189208984375,-0.005462646484375,-0.023040771484375,C,0,2026-08-24_10-06-59,2026-08-24
0.8523316062176166,0.9159851301115242,0.9353891336270191,0.7824267782426778,0.18811881188118812,1.0,1.0,1.0,1.0,1.0,0.0,0.466552734375,-0.130859375,-0.2618408203125,-0.0069580078125,-0.00482177734375,-0.023223876953125,C,0,2026-08-24_10-06-59,2026-08-24
0.8566493955094991,0.9263940520446097,0.9397944199706314,0.8158995815899581,0.21782178217821782,1.0,1.0,1.0,1.0,1.0,0.0,0.471435546875,-0.1248779296875,-0.2686767578125,-0.032745361328125,-0.000732421875,-0.019012451171875,C,0,2026-08-24_10-06-59,2026-08-24
0.8471502590673575,0.9144981412639405,0.9177679882525698,0.799163179916318,0.2376237623762376,1.0,1.0,1.0,1.0,1.0,0.0,0.468994140625,-0.097900390625,-0.267822265625,-0.04486083984375,0.00860595703125,-0.01617431640625,C,0,2026-08-24_10-06-59,2026-08-24
0.8471502590673575,0.9182156133828996,0.9192364170337739,0.799163179916318,0.3069306930693069,1.0,1.0,1.0,1.0,1.0,0.0,0.4691162109375,-0.083984375,-0.2606201171875,-0.02105712890625,0.0052490234375,-0.010528564453125,C,0,2026-08-24_10-06-59,2026-08-24
0.8497409326424871,0.9174721189591079,0.9500734214390602,0.8326359832635983,0.297029702970297,1.0,1.0,1.0,1.0,1.0,0.0,0.4635009765625,-0.0989990234375,-0.271240234375,-0.008575439453125,-0.011474609375,-0.00836181640625,C,0,2026-08-24_10-06-59,2026-08-24
0.8506044905008635,0.9234200743494424,0.9353891336270191,0.7573221757322176,0.2376237623762376,1.0,1.0,1.0,1.0,1.0,0.0,0.4671630859375,-0.108642578125,-0.271728515625,-0.02392578125,0.006561279296875,-0.003570556640625,C,0,2026-08-24_10-06-59,2026-08-24
0.8592400690846287,0.9241635687732342,0.9265785609397944,0.7740585774058577,0.3069306930693069,1.0,1.0,1.0,1.0,1.0,0.0,0.474609375,-0.1187744140625,-0.2696533203125,-0.033172607421875,0.012725830078125,-0.000732421875,C,0,2026-08-24_10-06-59,2026-08-24
0.8514680483592401,0.9219330855018587,0.9353891336270191,0.8284518828451883,0.26732673267326734,1.0,1.0,1.0,1.0,1.0,0.0,0.47607421875,-0.1064453125,-0.2425537109375,-0.023162841796875,0.009490966796875,0.003204345703125,C,0,2026-08-24_10-06-59,2026-08-24
0.853195164075993,0.916728624535316,0.9324522760646109,0.8284518828451883,0.26732673267326734,1.0,1.0,1.0,1.0,1.0,0.0,0.47509765625,-0.117431640625,-0.2442626953125,-0.005157470703125,0.00225830078125,-0.00360107421875,C,0,2026-08-24_10-06-59,2026-08-24
0.8480138169257341,0.9204460966542751,0.9397944199706314,0.8535564853556485,0.2871287128712871,1.0,1.0,1.0,1.0,1.0,0.0,0.48095703125,-0.10986328125,-0.24609375,0.009307861328125,-0.017303466796875,-0.002960205078125,C,0,2026-08-24_10-06-59,2026-08-24
0.8549222797927462,0.916728624535316,0.9251101321585903,0.7866108786610879,0.21782178217821782,1.0,1.0,1.0,1.0,1.0,0.0,0.4744873046875,-0.124755859375,-0.2572021484375,0.014923095703125,-0.039947509765625,-0.0030517578125,C,0,2026-08-24_10-06-59,2026-08-24
0.8480138169257341,0.9234200743494424,0.9280469897209985,0.7615062761506276,0.3069306930693069,1.0,1.0,1.0,1.0,1.0,0.0,0.4691162109375,-0.1224365234375,-0.277099609375,-0.013427734375,-0.035308837890625,-0.003204345703125,C,0,2026-08-24_10-06-59,2026-08-24
0.8506044905008635,0.9189591078066914,0.9486049926578561,0.7866108786610879,0.3564356435643564,1.0,1.0,1.0,1.0,1.0,0.0,0.4647216796875,-0.1153564453125,-0.2821044921875,-0.0430908203125,-0.039764404296875,0.006072998046875,C,0,2026-08-24_10-06-59,2026-08-24
0.844559585492228,0.9130111524163569,0.908957415565345,0.7531380753138075,0.2871287128712871,1.0,1.0,1.0,1.0,1.0,0.0,0.4578857421875,-0.103759765625,-0.2803955078125,-0.037933349609375,-0.05084228515625,0.016204833984375,C,0,2026-08-24_10-06-59,2026-08-24
0.8549222797927462,0.924907063197026,0.9618208516886931,0.7824267782426778,0.22772277227722773,1.0,1.0,1.0,1.0,1.0,0.0,0.461181640625,-0.09814453125,-0.2872314453125,-0.02813720703125,-0.0428466796875,0.018310546875,C,0,2026-08-24_10-06-59,2026-08-24
0.8557858376511226,0.9115241635687732,0.9295154185022027,0.799163179916318,0.32673267326732675,1.0,1.0,1.0,1.0,1.0,0.0,0.4688720703125,-0.0970458984375,-0.2763671875,0.004791259765625,-0.035858154296875,0.0068359375,C,0,2026-08-24_10-06-59,2026-08-24
0.8411053540587219,0.916728624535316,0.9383259911894273,0.7824267782426778,0.3069306930693069,1.0,1.0,1.0,1.0,1.0,0.0,0.468994140625,-0.115234375,-0.2938232421875,-0.009368896484375,-0.0257568359375,-0.00714111328125,C,0,2026-08-24_10-06-59,2026-08-24
0.8376511226252159,0.916728624535316,0.9397944199706314,0.8284518828451883,0.25742574257425743,1.0,1.0,1.0,1.0,1.0,0.0,0.4683837890625,-0.089599609375,-0.2879638671875,-0.02484130859375,-0.01995849609375,-0.0057373046875,C,0,2026-08-24_10-06-59,2026-08-24
0.8471502590673575,0.9100371747211896,0.9060205580029369,0.7907949790794979,0.25742574257425743,1.0,1.0,1.0,1.0,1.0,0.0,0.4635009765625,-0.094970703125,-0.2821044921875,-0.023284912109375,-0.0247802734375,0.010345458984375,C,0,2026-08-24_10-06-59,2026-08-24
0.846286701208981,0.9144981412639405,0.9280469897209985,0.7740585774058577,0.297029702970297,1.0,1.0,1.0,1.0,1.0,0.0,0.4674072265625,-0.098388671875,-0.2799072265625,-0.036865234375,-0.0230712890625,0.01025390625,C,0,2026-08-24_10-06-59,2026-08-24
0.8557858376511226,0.916728624535316,0.9236417033773862,0.8075313807531381,0.2079207920792079,1.0,1.0,1.0,1.0,1.0,0.0,0.4658203125,-0.0941162109375,-0.2696533203125,-0.023406982421875,-0.021331787109375,-0.003936767578125,C,0,2026-08-24_10-06-59,2026-08-24
0.8454231433506045,0.916728624535316,0.9251101321585903,0.7656903765690377,0.25742574257425743,1.0,1.0,1.0,1.0,1.0,0.0,0.45751953125,-0.0919189453125,-0.2734375,-0.025115966796875,-0.018646240234375,-0.0118408203125,C,0,2026-08-24_10-06-59,2026-08-24
0.8514680483592401,0.9182156133828996,0.9309838472834068,0.8075313807531381,0.21782178217821782,1.0,1.0,1.0,1.0,1.0,0.0,0.4503173828125,-0.0823974609375,-0.271484375,-0.002960205078125,-0.019805908203125,-0.00946044921875,C,0,2026-08-24_10-06-59,2026-08-24
0.8488773747841105,0.9174721189591079,0.9251101321585903,0.7280334728033473,0.2871287128712871,1.0,1.0,1.0,1.0,1.0,0.0,0.4520263671875,-0.125,-0.28564453125,-0.031219482421875,-0.01336669921875,-0.009765625,C,0,2026-08-24_10-06-59,2026-08-24
0.842832469775475,0.916728624535316,0.9324522760646109,0.7866108786610879,0.24752475247524752,1.0,1.0,1.0,1.0,1.0,0.0,0.45654296875,-0.087646484375,-0.2705078125,-0.05169677734375,-0.00177001953125,0.000946044921875,C,0,2026-08-24_10-06-59,2026-08-24
0.846286701208981,0.9144981412639405,0.9265785609397944,0.6861924686192469,0.22772277227722773,1.0,1.0,1.0,1.0,1.0,0.0,0.4622802734375,-0.1007080078125,-0.26806640625,-0.03314208984375,0.011932373046875,-0.0001220703125,C,0,2026-08-24_10-06-59,2026-08-24
0.844559585492228,0.916728624535316,0.9148311306901615,0.799163179916318,0.3069306930693069,1.0,1.0,1.0,1.0,1.0,0.0,0.4554443359375,-0.095947265625,-0.271240234375,-0.012725830078125,0.0113525390625,-0.013916015625,C,0,2026-08-24_10-06-59,2026-08-24
0.8471502590673575,0.9174721189591079,0.9162995594713657,0.799163179916318,0.3564356435643564,1.0,1.0,1.0,1.0,1.0,0.0,0.4591064453125,-0.1094970703125,-0.276611328125,-0.00347900390625,0.017913818359375,-0.02789306640625,C,0,2026-08-24_10-06-59,2026-08-24
0.8238341968911918,0.9278810408921933,0.9618208516886931,0.8326359832635983,0.12871287128712872,1.0,1.0,1.0,1.0,1.0,0.0,0.4462890625,-0.0767822265625,-0.2830810546875,-0.051544189453125,0.04193115234375,-0.0137939453125,C,1,2026-08-24_10-06-59,2026-08-24
0.8307426597582038,0.929368029739777,0.9750367107195301,0.899581589958159,0.2079207920792079,1.0,1.0,1.0,1.0,1.0,0.0,0.4525146484375,-0.0611572265625,-0.2689208984375,-0.03509521484375,0.03326416015625,-0.001190185546875,C,1,2026-08-24_10-06-59,2026-08-24
0.8195164075993091,0.9159851301115242,0.986784140969163,0.8284518828451883,0.2871287128712871,1.0,1.0,1.0,1.0,1.0,0.0,0.4552001953125,-0.0968017578125,-0.2698974609375,-0.042236328125,0.026702880859375,0.006988525390625,C,1,2026-08-24_10-06-59,2026-08-24
0.8307426597582038,0.9286245353159851,0.9750367107195301,0.799163179916318,0.25742574257425743,1.0,1.0,1.0,1.0,1.0,0.0,0.461181640625,-0.087646484375,-0.25439453125,-0.0462646484375,0.03131103515625,0.0020751953125,C,1,2026-08-24_10-06-59,2026-08-24
0.8238341968911918,0.9204460966542751,0.9647577092511013,0.8158995815899581,0.1485148514851485,1.0,1.0,1.0,1.0,1.0,0.0,0.470458984375,-0.109619140625,-0.2445068359375,-0.02203369140625,0.030792236328125,-0.008514404296875,C,1,2026-08-24_10-06-59,2026-08-24
0.8324697754749568,0.9278810408921933,0.9618208516886931,0.8451882845188284,0.21782178217821782,1.0,1.0,1.0,1.0,1.0,0.0,0.479248046875,-0.10546875,-0.2440185546875,-0.00439453125,0.02520751953125,-0.01751708984375,C,1,2026-08-24_10-06-59,2026-08-24
0.8281519861830743,0.9211895910780669,0.9412628487518355,0.7866108786610879,0.13861386138613863,1.0,1.0,1.0,1.0,1.0,0.0,0.4755859375,-0.114990234375,-0.2430419921875,0.014068603515625,0.022125244140625,-0.02490234375,C,1,2026-08-24_10-06-59,2026-08-24
0.8324697754749568,0.9286245353159851,0.9720998531571219,0.899581589958159,0.26732673267326734,1.0,1.0,1.0,1.0,1.0,0.0,0.4764404296875,-0.11328125,-0.249755859375,0.001983642578125,0.017364501953125,-0.0252685546875,C,1,2026-08-24_10-06-59,2026-08-24
0.8341968911917098,0.9278810408921933,0.9838472834067548,0.8702928870292888,0.297029702970297,1.0,1.0,1.0,1.0,1.0,0.0,0.4783935546875,-0.1011962890625,-0.244140625,-0.0128173828125,0.00897216796875,-0.0198974609375,C,1,2026-08-24_10-06-59,2026-08-24
0.8341968911917098,0.9211895910780669,0.960352422907489,0.8284518828451883,0.25742574257425743,1.0,1.0,1.0,1.0,1.0,0.0,0.474853515625,-0.0953369140625,-0.25244140625,-0.016326904296875,-0.00048828125,-0.012664794921875,C,1,2026-08-24_10-06-59,2026-08-24
0.8324697754749568,0.9315985130111524,0.9779735682819384,0.8493723849372385,0.24752475247524752,1.0,1.0,1.0,1.0,1.0,0.0,0.4681396484375,-0.08349609375,-0.2581787109375,-0.0155029296875,-0.001739501953125,-0.008056640625,C,1,2026-08-24_10-06-59,2026-08-24
0.8350604490500864,0.9315985130111524,0.9765051395007343,0.8410041841004184,0.22772277227722773,1.0,1.0,1.0,1.0,1.0,0.0,0.4674072265625,-0.08056640625,-0.272216796875,-0.016357421875,0.006988525390625,-0.0091552734375,C,1,2026-08-24_10-06-59,2026-08-24
0.8307426597582038,0.9204460966542751,0.9544787077826725,0.8493723849372385,0.2871287128712871,1.0,1.0,1.0,1.0,1.0,0.0,0.46728515625,-0.068115234375,-0.26953125,-0.001922607421875,0.003875732421875,-0.003326416015625,C,1,2026-08-24_10-06-59,2026-08-24
0.8341968911917098,0.9271375464684015,0.9765051395007343,0.8493723849372385,0.18811881188118812,1.0,1.0,1.0,1.0,1.0,0.0,0.4654541015625,-0.0904541015625,-0.26953125,0.008758544921875,0.0037841796875,0.000274658203125,C,1,2026-08-24_10-06-59,2026-08-24
0.8341968911917098,0.924907063197026,1.0,0.8284518828451883,0.24752475247524752,1.0,1.0,1.0,1.0,1.0,0.0,0.477294921875,-0.1005859375,-0.2769775390625,-0.03314208984375,0.005523681640625,0.006439208984375,C,1,2026-08-24_10-06-59,2026-08-24
0.8350604490500864,0.929368029739777,0.9720998531571219,0.9121338912133892,0.19801980198019803,1.0,1.0,1.0,1.0,1.0,0.0,0.4764404296875,-0.08349609375,-0.26318359375,-0.02813720703125,0.00250244140625,0.016143798828125,C,1,2026-08-24_10-06-59,2026-08-24
0.8350604490500864,0.9263940520446097,0.9720998531571219,0.8284518828451883,0.2079207920792079,1.0,1.0,1.0,1.0,1.0,0.0,0.4813232421875,-0.0985107421875,-0.283447265625,-0.03656005859375,0.004791259765625,0.016632080078125,C,1,2026-08-24_10-06-59,2026-08-24
0.8359240069084629,0.9286245353159851,0.9750367107195301,0.8284518828451883,0.1485148514851485,1.0,1.0,1.0,1.0,1.0,0.0,0.476806640625,-0.088623046875,-0.27099609375,-0.029296875,0.01080322265625,0.010406494140625,C,1,2026-08-24_10-06-59,2026-08-24
0.8393782383419689,0.9278810408921933,0.9676945668135095,0.8158995815899581,0.16831683168316833,1.0,1.0,1.0,1.0,1.0,0.0,0.4837646484375,-0.1102294921875,-0.2774658203125,-0.010711669921875,0.014312744140625,-0.000823974609375,C,1,2026-08-24_10-06-59,2026-08-24
0.8341968911917098,0.9271375464684015,0.9676945668135095,0.8326359832635983,0.2376237623762376,1.0,1.0,1.0,1.0,1.0,0.0,0.4937744140625,-0.1239013671875,-0.2664794921875,-0.031646728515625,0.017364501953125,-0.01055908203125,C,1,2026-08-24_10-06-59,2026-08-24
0.8376511226252159,0.9211895910780669,0.9632892804698973,0.8326359832635983,0.15841584158415842,1.0,1.0,1.0,1.0,1.0,0.0,0.5054931640625,-0.1087646484375,-0.254150390625,-0.046905517578125,0.00909423828125,-0.01385498046875,C,1,2026-08-24_10-06-59,2026-08-24
0.8290155440414507,0.9241635687732342,0.9500734214390602,0.8284518828451883,0.22772277227722773,1.0,1.0,1.0,1.0,1.0,0.0,0.503662109375,-0.1068115234375,-0.259765625,-0.055938720703125,-0.00482177734375,-0.01153564453125,C,1,2026-08-24_10-06-59,2026-08-24
0.8419689119170984,0.9278810408921933,0.9676945668135095,0.8200836820083682,0.2079207920792079,1.0,1.0,1.0,1.0,1.0,0.0,0.498291015625,-0.0919189453125,-0.255615234375,-0.0513916015625,-0.0096435546875,-0.015380859375,C,1,2026-08-24_10-06-59,2026-08-24
0.8350604490500864,0.929368029739777,0.9809104258443465,0.8200836820083682,0.297029702970297,1.0,1.0,1.0,1.0,1.0,0.0,0.48486328125,-0.075927734375,-0.2564697265625,-0.026336669921875,-0.005340576171875,-0.02703857421875,C,1,2026-08-24_10-06-59,2026-08-24
0.8298791018998273,0.9286245353159851,0.9691629955947136,0.799163179916318,0.2871287128712871,1.0,1.0,1.0,1.0,1.0,0.0,0.4827880859375,-0.0833740234375,-0.2626953125,-0.003631591796875,-0.0108642578125,-0.03863525390625,C,1,2026-08-24_10-06-59,2026-08-24
0.8376511226252159,0.9286245353159851,0.973568281938326,0.7907949790794979,0.25742574257425743,1.0,1.0,1.0,1.0,1.0,0.0,0.48291015625,-0.07763671875,-0.2572021484375,-0.0072021484375,-0.01800537109375,-0.038330078125,C,1,2026-08-24_10-06-59,2026-08-24
0.8393782383419689,0.9211895910780669,0.9441997063142438,0.8284518828451883,0.18811881188118812,1.0,1.0,1.0,1.0,1.0,0.0,0.4732666015625,-0.072998046875,-0.2554931640625,-0.01434326171875,-0.030059814453125,-0.025970458984375,C,1,2026-08-24_10-06-59,2026-08-24
0.8411053540587219,0.9278810408921933,0.9662261380323054,0.9121338912133892,0.26732673267326734,1.0,1.0,1.0,1.0,1.0,0.0,0.4698486328125,-0.0635986328125,-0.2647705078125,-0.029632568359375,-0.0360107421875,-0.010986328125,C,1,2026-08-24_10-06-59,2026-08-24
0.8333333333333334,0.9211895910780669,0.9530102790014684,0.8117154811715481,0.21782178217821782,1.0,1.0,1.0,1.0,1.0,0.0,0.4730224609375,-0.0609130859375,-0.269775390625,-0.032958984375,-0.036224365234375,-0.000885009765625,C,1,2026-08-24_10-06-59,2026-08-24
0.8324697754749568,0.9219330855018587,0.9647577092511013,0.8535564853556485,0.24752475247524752,1.0,1.0,1.0,1.0,1.0,0.0,0.4744873046875,-0.0635986328125,-0.2655029296875,-0.0238037109375,-0.038055419921875,-0.00079345703125,C,1,2026-08-24_10-06-59,2026-08-24
0.8316062176165803,0.9219330855018587,0.9691629955947136,0.8284518828451883,0.25742574257425743,1.0,1.0,1.0,1.0,1.0,0.0,0.47509765625,-0.070068359375,-0.268310546875,-0.01226806640625,-0.037384033203125,-0.003662109375,C,1,2026-08-24_10-06-59,2026-08-24
0.8393782383419689,0.9286245353159851,0.986784140969163,0.8493723849372385,0.297029702970297,1.0,1.0,1.0,1.0,1.0,0.0,0.4815673828125,-0.0709228515625,-0.2686767578125,-0.008544921875,-0.0311279296875,-0.003631591796875,C,1,2026-08-24_10-06-59,2026-08-24
0.8350604490500864,0.9271375464684015,0.9676945668135095,0.8242677824267782,0.18811881188118812,1.0,1.0,1.0,1.0,1.0,0.0,0.481689453125,-0.0526123046875,-0.282470703125,-0.011322021484375,-0.028472900390625,0.00982666015625,C,1,2026-08-24_10-06-59,2026-08-24
0.8350604490500864,0.9263940520446097,0.9809104258443465,0.7866108786610879,0.24752475247524752,1.0,1.0,1.0,1.0,1.0,0.0,0.4747314453125,-0.065185546875,-0.2762451171875,-0.005218505859375,-0.0390625,0.01263427734375,C,1,2026-08-24_10-06-59,2026-08-24
0.8454231433506045,0.9308550185873606,0.9765051395007343,0.8661087866108786,0.18811881188118812,1.0,1.0,1.0,1.0,1.0,0.0,0.46826171875,-0.0677490234375,-0.2855224609375,-0.01446533203125,-0.044403076171875,0.011871337890625,C,1,2026-08-24_10-06-59,2026-08-24
0.842832469775475,0.9256505576208178,0.9676945668135095,0.891213389121339,0.15841584158415842,1.0,1.0,1.0,1.0,1.0,0.0,0.4578857421875,-0.08154296875,-0.293701171875,-0.020965576171875,-0.0308837890625,0.00384521484375,C,1,2026-08-24_10-06-59,2026-08-24
0.8341968911917098,0.9278810408921933,0.9588839941262849,0.8326359832635983,0.2871287128712871,1.0,1.0,1.0,1.0,1.0,0.0,0.4493408203125,-0.0733642578125,-0.2872314453125,-0.020477294921875,-0.00921630859375,-0.005615234375,C,1,2026-08-24_10-06-59,2026-08-24
0.8359240069084629,0.9241635687732342,0.960352422907489,0.8075313807531381,0.2376237623762376,1.0,1.0,1.0,1.0,1.0,0.0,0.4544677734375,-0.080078125,-0.2767333984375,-0.004364013671875,0.0037841796875,-0.012451171875,C,1,2026-08-24_10-06-59,2026-08-24
0.8359240069084629,0.9286245353159851,0.9706314243759178,0.8744769874476988,0.2871287128712871,1.0,1.0,1.0,1.0,1.0,0.0,0.46044921875,-0.0936279296875,-0.2718505859375,-0.0213623046875,0.000762939453125,-0.02154541015625,C,1,2026-08-24_10-06-59,2026-08-24
0.8385146804835925,0.9278810408921933,0.9647577092511013,0.8284518828451883,0.18811881188118812,1.0,1.0,1.0,1.0,1.0,0.0,0.462890625,-0.0667724609375,-0.26171875,-0.041259765625,0.00592041015625,-0.020904541015625,C,1,2026-08-24_10-06-59,2026-08-24
0.8272884283246977,0.9286245353159851,0.9720998531571219,0.8368200836820083,0.13861386138613863,1.0,1.0,1.0,1.0,1.0,0.0,0.43896484375,0.038330078125,-0.35595703125,-0.001708984375,0.0137939453125,-0.004241943359375,C,2,2026-08-24_10-06-59,2026-08-24
0.8385146804835925,0.9286245353159851,0.9500734214390602,0.7489539748953975,0.1485148514851485,1.0,1.0,1.0,1.0,1.0,0.0,0.431640625,0.0577392578125,-0.3477783203125,-0.0208740234375,0.008758544921875,0.011993408203125,C,2,2026-08-24_10-06-59,2026-08-24
0.8307426597582038,0.9308550185873606,0.9794419970631424,0.8242677824267782,0.18811881188118812,1.0,1.0,1.0,1.0,1.0,0.0,0.426513671875,0.048095703125,-0.331298828125,-0.00408935546875,0.0084228515625,0.02130126953125,C,2,2026-08-24_10-06-59,2026-08-24
0.8246977547495682,0.9301115241635688,0.9662261380323054,0.8284518828451883,0.1782178217821782,1.0,1.0,1.0,1.0,1.0,0.0,0.4307861328125,0.0279541015625,-0.3304443359375,-0.009552001953125,0.015350341796875,0.009002685546875,C,2,2026-08-24_10-06-59,2026-08-24
0.8333333333333334,0.9263940520446097,0.9515418502202643,0.7405857740585774,0.19801980198019803,1.0,1.0,1.0,1.0,1.0,0.0,0.431640625,0.0382080078125,-0.327880859375,0.00030517578125,0.0274658203125,-0.001678466796875,C,2,2026-08-24_10-06-59,2026-08-24
0.8221070811744386,0.9286245353159851,0.9706314243759178,0.8200836820083682,0.25742574257425743,1.0,1.0,1.0,1.0,1.0,0.0,0.442138671875,0.0289306640625,-0.3125,0.011138916015625,0.03582763671875,-0.0023193359375,C,2,2026-08-24_10-06-59,2026-08-24
0.8359240069084629,0.9286245353159851,0.9486049926578561,0.8117154811715481,0.1485148514851485,1.0,1.0,1.0,1.0,1.0,0.0,0.4466552734375,0.0191650390625,-0.308349609375,-0.015045166015625,0.02886962890625,0.0059814453125,C,2,2026-08-24_10-06-59,2026-08-24
0.8341968911917098,0.9286245353159851,0.9632892804698973,0.7405857740585774,0.18811881188118812,1.0,1.0,1.0,1.0,1.0,0.0,0.4495849609375,0.0211181640625,-0.3023681640625,-0.017913818359375,0.011962890625,0.0133056640625,C,2,2026-08-24_10-06-59,2026-08-24
0.8212435233160622,0.9308550185873606,0.9559471365638766,0.803347280334728,0.24752475247524752,1.0,1.0,1.0,1.0,1.0,0.0,0.4439697265625,0.020751953125,-0.298095703125,-0.02587890625,0.007049560546875,0.012115478515625,C,2,2026-08-24_10-06-59,2026-08-24
0.8359240069084629,0.929368029739777,0.9632892804698973,0.7615062761506276,0.12871287128712872,1.0,1.0,1.0,1.0,1.0,0.0,0.4327392578125,0.025634765625,-0.3033447265625,0.00848388671875,0.005340576171875,0.004150390625,C,2,2026-08-24_10-06-59,2026-08-24
0.8359240069084629,0.9286245353159851,0.9544787077826725,0.7866108786610879,0.22772277227722773,1.0,1.0,1.0,1.0,1.0,0.0,0.431396484375,0.0028076171875,-0.3126220703125,0.004302978515625,0.005279541015625,-0.00592041015625,C,2,2026-08-24_10-06-59,2026-08-24
0.8359240069084629,0.9338289962825279,0.9588839941262849,0.7405857740585774,0.21782178217821782,1.0,1.0,1.0,1.0,1.0,0.0,0.443603515625,0.04248046875,-0.30859375,-0.0010986328125,0.005340576171875,-0.00164794921875,C,2,2026-08-24_10-06-59,2026-08-24
0.8324697754749568,0.9271375464684015,0.9397944199706314,0.7615062761506276,0.1485148514851485,1.0,1.0,1.0,1.0,1.0,0.0,0.4473876953125,0.04638671875,-0.3197021484375,0.01959228515625,0.008331298828125,0.00335693359375,C,2,2026-08-24_10-06-59,2026-08-24
0.8333333333333334,0.9301115241635688,0.9794419970631424,0.7866108786610879,0.2079207920792079,1.0,1.0,1.0,1.0,1.0,0.0,0.444091796875,0.0252685546875,-0.327880859375,0.01055908203125,0.005126953125,0.0018310546875,C,2,2026-08-24_10-06-59,2026-08-24
0.8350604490500864,0.9278810408921933,0.9295154185022027,0.7573221757322176,0.22772277227722773,1.0,1.0,1.0,1.0,1.0,0.0,0.432861328125,0.0333251953125,-0.3311767578125,0.00927734375,0.00360107421875,0.001068115234375,C,2,2026-08-24_10-06-59,2026-08-24
0.842832469775475,0.9286245353159851,0.9647577092511013,0.8284518828451883,0.25742574257425743,1.0,1.0,1.0,1.0,1.0,0.0,0.4368896484375,0.0361328125,-0.3226318359375,-0.01580810546875,0.005340576171875,0.005401611328125,C,2,2026-08-24_10-06-59,2026-08-24
0.8359240069084629,0.9286245353159851,0.9544787077826725,0.7824267782426778,0.18811881188118812,1.0,1.0,1.0,1.0,1.0,0.0,0.4354248046875,0.056396484375,-0.3226318359375,-0.000823974609375,-0.002685546875,0.015960693359375,C,2,2026-08-24_10-06-59,2026-08-24
0.842832469775475,0.9323420074349442,0.9632892804698973,0.7740585774058577,0.0891089108910891,1.0,1.0,1.0,1.0,1.0,0.0,0.4361572265625,0.0618896484375,-0.322998046875,0.026885986328125,0.01068115234375,0.026336669921875,C,2,2026-08-24_10-06-59,2026-08-24
0.8341968911917098,0.9286245353159851,0.960352422907489,0.7824267782426778,0.21782178217821782,1.0,1.0,1.0,1.0,1.0,0.0,0.450439453125,0.030029296875,-0.3204345703125,0.03271484375,0.0068359375,0.019500732421875,C,2,2026-08-24_10-06-59,2026-08-24
0.8324697754749568,0.9263940520446097,0.9676945668135095,0.7071129707112971,0.19801980198019803,1.0,1.0,1.0,1.0,1.0,0.0,0.448486328125,0.0296630859375,-0.3173828125,0.005615234375,-0.00384521484375,0.02215576171875,C,2,2026-08-24_10-06-59,2026-08-24
0.8376511226252159,0.9286245353159851,0.9544787077826725,0.799163179916318,0.21782178217821782,1.0,1.0,1.0,1.0,1.0,0.0,0.4586181640625,0.0340576171875,-0.3223876953125,-0.00567626953125,-0.00836181640625,0.03179931640625,C,2,2026-08-24_10-06-59,2026-08-24
0.8341968911917098,0.9271375464684015,0.9500734214390602,0.7698744769874477,0.22772277227722773,1.0,1.0,1.0,1.0,1.0,0.0,0.4561767578125,0.0390625,-0.3199462890625,0.014556884765625,-0.022918701171875,0.049285888671875,C,2,2026-08-24_10-06-59,2026-08-24
0.8359240069084629,0.9286245353159851,0.9559471365638766,0.8284518828451883,0.1782178217821782,1.0,1.0,1.0,1.0,1.0,0.0,0.4515380859375,0.0023193359375,-0.325927734375,0.013336181640625,-0.033782958984375,0.048187255859375,C,2,2026-08-24_10-06-59,2026-08-24
0.8221070811744386,0.9315985130111524,0.9647577092511013,0.799163179916318,0.19801980198019803,1.0,1.0,1.0,1.0,1.0,0.0,0.44775390625,-0.001953125,-0.323974609375,-0.0096435546875,-0.01806640625,0.033172607421875,C,2,2026-08-24_10-06-59,2026-08-24
0.8393782383419689,0.9353159851301115,0.9574155653450808,0.8326359832635983,0.15841584158415842,1.0,1.0,1.0,1.0,1.0,0.0,0.4471435546875,0.0228271484375,-0.3018798828125,-0.009002685546875,0.003265380859375,0.022003173828125,C,2,2026-08-24_10-06-59,2026-08-24
