flex_pinky,flex_ring,flex_middle,flex_index,flex_thumb,touch_index,touch_middle,touch_ring,touch_pinky,touch_r,touch_u,ax,ay,az,gx,gy,gz,label,rep,session,day
0.9507781397032211,0.9987929993964997,0.0,0.0,0.43312101910828027,1.0,1.0,1.0,1.0,1.0,0.0,0.177490234375,-0.47705078125,0.040283203125,-0.04534912109375,-0.02764892578125,0.00872802734375,H,0,2026-08-24_23-25-27,2026-08-24
0.9449873326094824,1.0,0.0,0.0,0.5222929936305732,1.0,1.0,1.0,1.0,1.0,0.0,0.176025390625,-0.4881591796875,0.0306396484375,-0.018768310546875,-0.010345458984375,0.00555419921875,H,0,2026-08-24_23-25-27,2026-08-24
0.9478827361563518,1.0,0.0,0.0,0.5605095541401274,1.0,1.0,1.0,1.0,1.0,0.0,0.177490234375,-0.4835205078125,0.0299072265625,-0.017578125,0.002471923828125,0.000213623046875,H,0,2026-08-24_23-25-27,2026-08-24
0.9594643503438292,1.0,0.0,0.0,0.6114649681528662,1.0,1.0,1.0,1.0,1.0,0.0,0.1826171875,-0.47509765625,0.0394287109375,-0.002166748046875,-0.01470947265625,0.0025634765625,H,0,2026-08-24_23-25-27,2026-08-24
0.9522258414766558,0.9939649969824985,0.0,0.0,0.6496815286624203,1.0,1.0,1.0,1.0,1.0,0.0,0.1759033203125,-0.4891357421875,0.035888671875,0.002197265625,-0.0181884765625,0.003662109375,H,0,2026-08-24_23-25-27,2026-08-24
0.9413680781758957,0.9420639710319855,0.0,0.0,0.4968152866242038,1.0,1.0,1.0,1.0,1.0,0.0,0.1773681640625,-0.4825439453125,0.032470703125,-0.007293701171875,-0.010498046875,0.00372314453125,H,0,2026-08-24_23-25-27,2026-08-24
0.9486065870430691,0.9034399517199758,0.0,0.0,0.5605095541401274,1.0,1.0,1.0,1.0,1.0,0.0,0.1710205078125,-0.4859619140625,0.03125,-0.00286865234375,0.00189208984375,0.00482177734375,H,0,2026-08-24_23-25-27,2026-08-24
0.9500542888165038,0.896197948098974,0.0,0.0,0.5095541401273885,1.0,1.0,1.0,1.0,1.0,0.0,0.18212890625,-0.487548828125,0.02880859375,-0.018585205078125,0.008331298828125,0.004302978515625,H,0,2026-08-24_23-25-27,2026-08-24
0.9399203764024611,0.8925769462884732,0.0,0.0,0.6369426751592356,1.0,1.0,1.0,1.0,1.0,0.0,0.1875,-0.482421875,0.0390625,-0.0166015625,-0.008758544921875,0.006622314453125,H,0,2026-08-24_23-25-27,2026-08-24
0.9536735432500905,1.0,0.0,0.0,0.6369426751592356,1.0,1.0,1.0,1.0,1.0,0.0,0.18212890625,-0.4859619140625,0.0379638671875,-0.00933837890625,-0.01934814453125,0.005035400390625,H,0,2026-08-24_23-25-27,2026-08-24
0.9515019905899385,1.0,0.0,0.0,0.4840764331210191,1.0,1.0,1.0,1.0,1.0,0.0,0.18212890625,-0.480712890625,0.0460205078125,-0.002838134765625,-0.017303466796875,0.005279541015625,H,0,2026-08-24_23-25-27,2026-08-24
0.9558450959102425,1.0,0.0,0.0,0.42038216560509556,1.0,1.0,1.0,1.0,1.0,0.0,0.172607421875,-0.4881591796875,0.0406494140625,0.0213623046875,-0.007843017578125,0.004638671875,H,0,2026-08-24_23-25-27,2026-08-24
0.9391965255157437,1.0,0.0,0.0,0.5732484076433121,1.0,1.0,1.0,1.0,1.0,0.0,0.182861328125,-0.4979248046875,0.0372314453125,0.007171630859375,-0.00213623046875,3.0517578125e-05,H,0,2026-08-24_23-25-27,2026-08-24
0.9522258414766558,1.0,0.0,0.0,0.5859872611464968,1.0,1.0,1.0,1.0,1.0,0.0,0.182861328125,-0.491455078125,0.041015625,-0.006927490234375,-0.00616455078125,0.000885009765625,H,0,2026-08-24_23-25-27,2026-08-24
0.9529496923633731,1.0,0.0,0.0,0.5732484076433121,1.0,1.0,1.0,1.0,1.0,0.0,0.182373046875,-0.4847412109375,0.04248046875,-0.016448974609375,-0.01702880859375,0.00335693359375,H,0,2026-08-24_23-25-27,2026-08-24
0.9486065870430691,0.8865419432709717,0.0,0.0,0.5477707006369427,1.0,1.0,1.0,1.0,1.0,0.0,0.1785888671875,-0.4884033203125,0.0450439453125,-0.00714111328125,-0.017425537109375,0.00164794921875,H,0,2026-08-24_23-25-27,2026-08-24
0.9507781397032211,0.9613759806879904,0.0,0.0,0.5222929936305732,1.0,1.0,1.0,1.0,1.0,0.0,0.1739501953125,-0.494140625,0.0394287109375,-0.005523681640625,-0.00201416015625,-0.001007080078125,H,0,2026-08-24_23-25-27,2026-08-24
0.9558450959102425,0.9432709716354858,0.0,0.0,0.5732484076433121,1.0,1.0,1.0,1.0,1.0,0.0,0.18212890625,-0.491455078125,0.0384521484375,-0.0130615234375,-0.00164794921875,-0.005126953125,H,0,2026-08-24_23-25-27,2026-08-24
0.9486065870430691,1.0,0.0,0.0,0.6242038216560509,1.0,1.0,1.0,1.0,1.0,0.0,0.17626953125,-0.48486328125,0.0413818359375,-0.0230712890625,-0.009246826171875,-0.001922607421875,H,0,2026-08-24_23-25-27,2026-08-24
0.9486065870430691,1.0,0.0,0.0,0.535031847133758,1.0,1.0,1.0,1.0,1.0,0.0,0.1712646484375,-0.486328125,0.0380859375,-0.024200439453125,0.002716064453125,-0.000213623046875,H,0,2026-08-24_23-25-27,2026-08-24
0.9507781397032211,1.0,0.0,0.0,0.5732484076433121,1.0,1.0,1.0,1.0,1.0,0.0,0.1748046875,-0.4859619140625,0.0389404296875,-0.02764892578125,0.010986328125,0.00372314453125,H,0,2026-08-24_23-25-27,2026-08-24
0.9558450959102425,1.0,0.0,0.0,0.5477707006369427,1.0,1.0,1.0,1.0,1.0,0.0,0.1900634765625,-0.487548828125,0.0467529296875,-0.035003662109375,0.00299072265625,0.00299072265625,H,0,2026-08-24_23-25-27,2026-08-24
0.9348534201954397,0.9722389861194931,0.0,0.0,0.5732484076433121,1.0,1.0,1.0,1.0,1.0,0.0,0.184814453125,-0.4779052734375,0.04833984375,-0.0316162109375,-0.016998291015625,0.001220703125,H,0,2026-08-24_23-25-27,2026-08-24
0.9478827361563518,0.9613759806879904,0.0,0.0,0.6624203821656051,1.0,1.0,1.0,1.0,1.0,0.0,0.1796875,-0.48291015625,0.0369873046875,-0.01007080078125,-0.01275634765625,0.002593994140625,H,0,2026-08-24_23-25-27,2026-08-24
0.9370249728555917,1.0,0.0,0.0,0.5987261146496815,1.0,1.0,1.0,1.0,1.0,0.0,0.1829833984375,-0.4813232421875,0.0384521484375,-0.007537841796875,-0.009490966796875,0.0008544921875,H,0,2026-08-24_23-25-27,2026-08-24
0.9435396308360477,1.0,0.0,0.0,0.4968152866242038,1.0,1.0,1.0,1.0,1.0,0.0,0.1751708984375,-0.485595703125,0.0391845703125,-0.006500244140625,-0.012359619140625,0.000701904296875,H,0,2026-08-24_23-25-27,2026-08-24
0.9478827361563518,1.0,0.0,0.0,0.5222929936305732,1.0,1.0,1.0,1.0,1.0,0.0,0.1810302734375,-0.4908447265625,0.0350341796875,-0.0169677734375,-0.006927490234375,0.00238037109375,H,0,2026-08-24_23-25-27,2026-08-24
0.9406442272891784,0.9420639710319855,0.0,0.0,0.535031847133758,1.0,1.0,1.0,1.0,1.0,0.0,0.185546875,-0.481201171875,0.0458984375,-0.019073486328125,-0.0111083984375,0.005096435546875,H,0,2026-08-24_23-25-27,2026-08-24
0.9449873326094824,1.0,0.0,0.0,0.5732484076433121,1.0,1.0,1.0,1.0,1.0,0.0,0.1756591796875,-0.4857177734375,0.041015625,-0.0064697265625,-0.00872802734375,0.003997802734375,H,0,2026-08-24_23-25-27,2026-08-24
0.9471588852696344,1.0,0.0,0.0,0.5987261146496815,1.0,1.0,1.0,1.0,1.0,0.0,0.183837890625,-0.4912109375,0.038330078125,-0.00872802734375,0.0003662109375,-0.000732421875,H,0,2026-08-24_23-25-27,2026-08-24
0.9500542888165038,1.0,0.0,0.0,0.6369426751592356,1.0,1.0,1.0,1.0,1.0,0.0,0.1925048828125,-0.48681640625,0.0509033203125,-0.011932373046875,-0.013671875,-0.002532958984375,H,0,2026-08-24_23-25-27,2026-08-24
0.9565689467969598,1.0,0.0,0.0,0.5477707006369427,1.0,1.0,1.0,1.0,1.0,0.0,0.177001953125,-0.4852294921875,0.0482177734375,-0.0074462890625,-0.019775390625,0.00189208984375,H,0,2026-08-24_23-25-27,2026-08-24
0.9435396308360477,1.0,0.0,0.0,0.42038216560509556,1.0,1.0,1.0,1.0,1.0,0.0,0.178466796875,-0.48828125,0.04345703125,-0.0135498046875,-0.00909423828125,0.00286865234375,H,0,2026-08-24_23-25-27,2026-08-24
0.9565689467969598,0.8792999396499698,0.0,0.0,0.6114649681528662,1.0,1.0,1.0,1.0,1.0,0.0,0.1815185546875,-0.4945068359375,0.0369873046875,-0.0098876953125,0.002349853515625,0.000579833984375,H,0,2026-08-24_23-25-27,2026-08-24
0.9500542888165038,0.9046469523234761,0.0,0.0,0.7261146496815286,1.0,1.0,1.0,1.0,1.0,0.0,0.1868896484375,-0.48583984375,0.044677734375,-0.019012451171875,-0.006561279296875,-0.00067138671875,H,0,2026-08-24_23-25-27,2026-08-24
0.9507781397032211,0.8853349426674714,0.0,0.0,0.4585987261146497,1.0,1.0,1.0,1.0,1.0,0.0,0.1859130859375,-0.4820556640625,0.045166015625,-0.0201416015625,-0.0213623046875,-0.00091552734375,H,0,2026-08-24_23-25-27,2026-08-24
0.9442634817227651,0.9034399517199758,0.0,0.0,0.6114649681528662,1.0,1.0,1.0,1.0,1.0,0.0,0.171142578125,-0.48291015625,0.0408935546875,-0.0029296875,-0.013153076171875,0.00091552734375,H,0,2026-08-24_23-25-27,2026-08-24
0.9464350343829171,0.9806879903439951,0.0,0.0,0.535031847133758,1.0,1.0,1.0,1.0,1.0,0.0,0.1766357421875,-0.4854736328125,0.0384521484375,-0.01263427734375,-0.0023193359375,-0.002288818359375,H,0,2026-08-24_23-25-27,2026-08-24
0.9486065870430691,1.0,0.0,0.0,0.40764331210191085,1.0,1.0,1.0,1.0,1.0,0.0,0.1802978515625,-0.4874267578125,0.0401611328125,-0.013397216796875,-0.004058837890625,-0.00189208984375,H,0,2026-08-24_23-25-27,2026-08-24
0.9449873326094824,1.0,0.0,0.0,0.445859872611465,1.0,1.0,1.0,1.0,1.0,0.0,0.1815185546875,-0.4871826171875,0.04736328125,-0.025238037109375,-0.01373291015625,0.0,H,0,2026-08-24_23-25-27,2026-08-24
0.9211002533478103,0.8648159324079662,0.0,0.0,0.40764331210191085,1.0,1.0,1.0,1.0,1.0,0.0,0.21630859375,-0.4794921875,0.0103759765625,-0.01190185546875,-0.046600341796875,0.011383056640625,H,1,2026-08-24_23-25-27,2026-08-24
0.924719507781397,0.8768859384429692,0.0,0.0,0.39490445859872614,1.0,1.0,1.0,1.0,1.0,0.0,0.213134765625,-0.491455078125,-0.0067138671875,-0.011505126953125,-0.00445556640625,0.0064697265625,H,1,2026-08-24_23-25-27,2026-08-24
0.9196525515743756,0.8660229330114665,0.0,0.0,0.42038216560509556,1.0,1.0,1.0,1.0,1.0,0.0,0.22119140625,-0.4801025390625,0.0025634765625,-0.018341064453125,0.00341796875,0.000518798828125,H,1,2026-08-24_23-25-27,2026-08-24
0.9232718060079623,0.8805069402534701,0.0,0.0,0.445859872611465,1.0,1.0,1.0,1.0,1.0,0.0,0.2257080078125,-0.474609375,0.0023193359375,-0.013031005859375,-0.02691650390625,0.00469970703125,H,1,2026-08-24_23-25-27,2026-08-24
0.9174809989142236,0.8684369342184671,0.0,0.0,0.40764331210191085,1.0,1.0,1.0,1.0,1.0,0.0,0.20703125,-0.4805908203125,-0.0062255859375,-0.006103515625,-0.030853271484375,0.004364013671875,H,1,2026-08-24_23-25-27,2026-08-24
0.913861744480637,0.884127942063971,0.0,0.0,0.43312101910828027,1.0,1.0,1.0,1.0,1.0,0.0,0.209716796875,-0.4808349609375,-0.0113525390625,-0.019317626953125,-0.004425048828125,0.004364013671875,H,1,2026-08-24_23-25-27,2026-08-24
0.913861744480637,0.8805069402534701,0.0,0.0,0.4585987261146497,1.0,1.0,1.0,1.0,1.0,0.0,0.2183837890625,-0.4765625,-0.001708984375,-0.021026611328125,-0.001220703125,0.00384521484375,H,1,2026-08-24_23-25-27,2026-08-24
0.913861744480637,0.8877489438744719,0.0,0.0,0.39490445859872614,1.0,1.0,1.0,1.0,1.0,0.0,0.2142333984375,-0.4720458984375,0.0003662109375,-0.01812744140625,-0.016357421875,0.00628662109375,H,1,2026-08-24_23-25-27,2026-08-24
0.9066232356134636,0.8829209414604707,0.0,0.0,0.4968152866242038,1.0,1.0,1.0,1.0,1.0,0.0,0.2088623046875,-0.474365234375,0.004150390625,-0.00921630859375,-0.02117919921875,0.009307861328125,H,1,2026-08-24_23-25-27,2026-08-24
0.916033297140789,0.8805069402534701,0.0,0.0,0.4840764331210191,1.0,1.0,1.0,1.0,1.0,0.0,0.208740234375,-0.478271484375,-0.00537109375,-0.016693115234375,-0.00347900390625,0.007598876953125,H,1,2026-08-24_23-25-27,2026-08-24
0.9211002533478103,0.8648159324079662,0.0,0.0,0.4585987261146497,1.0,1.0,1.0,1.0,1.0,0.0,0.2159423828125,-0.4749755859375,-0.004150390625,-0.028839111328125,0.015838623046875,0.005218505859375,H,1,2026-08-24_23-25-27,2026-08-24
0.913861744480637,0.8708509354254678,0.0,0.0,0.5222929936305732,1.0,1.0,1.0,1.0,1.0,0.0,0.224365234375,-0.4691162109375,0.005615234375,-0.023651123046875,0.001678466796875,0.01068115234375,H,1,2026-08-24_23-25-27,2026-08-24
0.9131378935939196,0.8768859384429692,0.0,0.0,0.535031847133758,1.0,1.0,1.0,1.0,1.0,0.0,0.222900390625,-0.4752197265625,0.010009765625,-0.0196533203125,-0.024932861328125,0.01123046875,H,1,2026-08-24_23-25-27,2026-08-24
0.9044516829533116,0.8780929390464696,0.0,0.0,0.39490445859872614,1.0,1.0,1.0,1.0,1.0,0.0,0.216064453125,-0.4813232421875,0.0008544921875,-0.01043701171875,-0.028564453125,0.009979248046875,H,1,2026-08-24_23-25-27,2026-08-24
0.913861744480637,0.8732649366324683,0.0,0.0,0.5477707006369427,1.0,1.0,1.0,1.0,1.0,0.0,0.21435546875,-0.4862060546875,-0.0091552734375,-0.0142822265625,-0.00567626953125,0.00323486328125,H,1,2026-08-24_23-25-27,2026-08-24
0.9008324285197249,0.8624019312009656,0.0,0.0,0.4968152866242038,1.0,1.0,1.0,1.0,1.0,0.0,0.2171630859375,-0.477783203125,-0.00048828125,-0.023834228515625,0.00177001953125,0.001251220703125,H,1,2026-08-24_23-25-27,2026-08-24
0.9051755338400289,0.8660229330114665,0.0,0.0,0.4968152866242038,1.0,1.0,1.0,1.0,1.0,0.0,0.2252197265625,-0.4757080078125,0.00244140625,-0.02056884765625,-0.016082763671875,0.00640869140625,H,1,2026-08-24_23-25-27,2026-08-24
0.9030039811798769,0.8648159324079662,0.0,0.0,0.33121019108280253,1.0,1.0,1.0,1.0,1.0,0.0,0.21044921875,-0.4755859375,0.0,-0.015045166015625,-0.0299072265625,0.008819580078125,H,1,2026-08-24_23-25-27,2026-08-24
0.9189287006876583,0.8587809293904647,0.0,0.0,0.40764331210191085,1.0,1.0,1.0,1.0,1.0,0.0,0.20751953125,-0.4837646484375,0.0015869140625,-0.018463134765625,-0.013702392578125,0.008453369140625,H,1,2026-08-24_23-25-27,2026-08-24
0.9174809989142236,0.8744719372359686,0.0,0.0,0.4713375796178344,1.0,1.0,1.0,1.0,1.0,0.0,0.217041015625,-0.481201171875,-0.003173828125,-0.020172119140625,0.00775146484375,0.000946044921875,H,1,2026-08-24_23-25-27,2026-08-24
0.9124140427072023,0.8817139408569704,0.0,0.0,0.4713375796178344,1.0,1.0,1.0,1.0,1.0,0.0,0.2205810546875,-0.47216796875,0.0062255859375,-0.017578125,-0.003753662109375,0.00238037109375,H,1,2026-08-24_23-25-27,2026-08-24
0.9145855953673543,0.8708509354254678,0.0,0.0,0.4585987261146497,1.0,1.0,1.0,1.0,1.0,0.0,0.213623046875,-0.469482421875,-0.00146484375,-0.007110595703125,-0.022857666015625,0.002716064453125,H,1,2026-08-24_23-25-27,2026-08-24
0.9124140427072023,0.8780929390464696,0.0,0.0,0.5859872611464968,1.0,1.0,1.0,1.0,1.0,0.0,0.2132568359375,-0.4754638671875,-0.002197265625,-0.01568603515625,-0.0194091796875,0.006744384765625,H,1,2026-08-24_23-25-27,2026-08-24
0.916033297140789,0.8648159324079662,0.0,0.0,0.5605095541401274,1.0,1.0,1.0,1.0,1.0,0.0,0.21875,-0.478515625,0.0009765625,-0.0211181640625,-0.00848388671875,0.00579833984375,H,1,2026-08-24_23-25-27,2026-08-24
0.9232718060079623,0.8756789378394689,0.0,0.0,0.40764331210191085,1.0,1.0,1.0,1.0,1.0,0.0,0.2159423828125,-0.4761962890625,0.0001220703125,-0.021240234375,-0.014007568359375,0.006011962890625,H,1,2026-08-24_23-25-27,2026-08-24
0.913861744480637,0.8829209414604707,0.0,0.0,0.43312101910828027,1.0,1.0,1.0,1.0,1.0,0.0,0.2109375,-0.4742431640625,-0.003173828125,-0.010406494140625,-0.0107421875,0.007080078125,H,1,2026-08-24_23-25-27,2026-08-24
0.913861744480637,0.8853349426674714,0.0,0.0,0.445859872611465,1.0,1.0,1.0,1.0,1.0,0.0,0.21630859375,-0.486572265625,-0.0072021484375,-0.017974853515625,0.00244140625,0.00445556640625,H,1,2026-08-24_23-25-27,2026-08-24
0.9261672095548317,0.8805069402534701,0.0,0.0,0.4713375796178344,1.0,1.0,1.0,1.0,1.0,0.0,0.212890625,-0.484375,-0.00634765625,-0.0308837890625,0.00543212890625,0.004364013671875,H,1,2026-08-24_23-25-27,2026-08-24
0.913861744480637,0.8624019312009656,0.0,0.0,0.4968152866242038,1.0,1.0,1.0,1.0,1.0,0.0,0.210693359375,-0.47314453125,-0.00634765625,-0.032012939453125,0.01019287109375,0.006072998046875,H,1,2026-08-24_23-25-27,2026-08-24
0.9261672095548317,0.8817139408569704,0.0,0.0,0.40764331210191085,1.0,1.0,1.0,1.0,1.0,0.0,0.2210693359375,-0.4688720703125,-0.000732421875,-0.029937744140625,-0.006561279296875,0.006683349609375,H,1,2026-08-24_23-25-27,2026-08-24
0.9131378935939196,0.8732649366324683,0.0,0.0,0.40764331210191085,1.0,1.0,1.0,1.0,1.0,0.0,0.2142333984375,-0.4674072265625,0.009765625,-0.005706787109375,-0.02459716796875,0.007720947265625,H,1,2026-08-24_23-25-27,2026-08-24
0.913861744480637,0.8756789378394689,0.0,0.0,0.43312101910828027,1.0,1.0,1.0,1.0,1.0,0.0,0.20751953125,-0.4813232421875,-0.001953125,0.004547119140625,-0.003631591796875,0.003326416015625,H,1,2026-08-24_23-25-27,2026-08-24
0.9232718060079623,0.872057936028968,0.0,0.0,0.4840764331210191,1.0,1.0,1.0,1.0,1.0,0.0,0.2095947265625,-0.4835205078125,-0.00244140625,-0.00872802734375,0.019256591796875,-0.001434326171875,H,1,2026-08-24_23-25-27,2026-08-24
0.9254433586681143,0.8648159324079662,0.0,0.0,0.40764331210191085,1.0,1.0,1.0,1.0,1.0,0.0,0.2208251953125,-0.478515625,0.001220703125,-0.0299072265625,0.004913330078125,0.003265380859375,H,1,2026-08-24_23-25-27,2026-08-24
0.9073470865001809,0.8636089318044659,0.0,0.0,0.4968152866242038,1.0,1.0,1.0,1.0,1.0,0.0,0.2222900390625,-0.4678955078125,0.0068359375,-0.033203125,-0.026153564453125,0.009490966796875,H,1,2026-08-24_23-25-27,2026-08-24
0.9145855953673543,0.8648159324079662,0.0,0.0,0.40764331210191085,1.0,1.0,1.0,1.0,1.0,0.0,0.2091064453125,-0.47509765625,0.009521484375,-0.015106201171875,-0.0272216796875,0.01104736328125,H,1,2026-08-24_23-25-27,2026-08-24
0.9153094462540716,0.8648159324079662,0.0,0.0,0.445859872611465,1.0,1.0,1.0,1.0,1.0,0.0,0.211669921875,-0.4840087890625,-0.000244140625,-0.00750732421875,-0.00830078125,0.004669189453125,H,1,2026-08-24_23-25-27,2026-08-24
0.9232718060079623,0.8648159324079662,0.0,0.0,0.445859872611465,1.0,1.0,1.0,1.0,1.0,0.0,0.2138671875,-0.4766845703125,-0.0028076171875,-0.004669189453125,-0.00628662109375,0.001708984375,H,1,2026-08-24_23-25-27,2026-08-24
0.920376402461093,0.8708509354254678,0.0,0.0,0.42038216560509556,1.0,1.0,1.0,1.0,1.0,0.0,0.220458984375,-0.4791259765625,-0.006591796875,-0.006805419921875,-0.011199951171875,0.0001220703125,H,1,2026-08-24_23-25-27,2026-08-24
0.9189287006876583,0.8780929390464696,0.0,0.0,0.4713375796178344,1.0,1.0,1.0,1.0,1.0,0.0,0.2125244140625,-0.4810791015625,-0.003662109375,-0.01934814453125,-0.01177978515625,0.000885009765625,H,1,2026-08-24_23-25-27,2026-08-24
0.9847991313789359,0.9034399517199758,0.0,0.0,0.3184713375796178,1.0,1.0,1.0,1.0,1.0,0.0,0.2259521484375,-0.4598388671875,-0.0660400390625,-0.010467529296875,0.0101318359375,-0.001983642578125,H,2,2026-08-24_23-25-27,2026-08-24
0.9790083242851972,0.9203379601689801,0.0,0.0,0.40764331210191085,1.0,1.0,1.0,1.0,1.0,0.0,0.2252197265625,-0.459716796875,-0.06591796875,-0.01123046875,-0.02996826171875,0.000457763671875,H,2,2026-08-24_23-25-27,2026-08-24
0.9753890698516106,0.9155099577549789,0.0,0.0,0.3821656050955414,1.0,1.0,0.0,1.0,1.0,0.0,0.21728515625,-0.462646484375,-0.0643310546875,-0.014007568359375,-0.03607177734375,0.00689697265625,H,2,2026-08-24_23-25-27,2026-08-24
0.9710459645313065,0.9070609535304768,0.0,0.0,0.35668789808917195,1.0,1.0,0.0,1.0,1.0,0.0,0.218994140625,-0.4805908203125,-0.079833984375,-0.0147705078125,-0.0028076171875,0.004364013671875,H,2,2026-08-24_23-25-27,2026-08-24
0.9833514296055013,0.9179239589619795,0.0,0.0,0.24203821656050956,1.0,1.0,0.0,1.0,1.0,0.0,0.219970703125,-0.4698486328125,-0.0753173828125,-0.01397705078125,0.014129638671875,0.001739501953125,H,2,2026-08-24_23-25-27,2026-08-24
0.9790083242851972,0.9191309595654797,0.0,0.0,0.42038216560509556,1.0,1.0,1.0,1.0,1.0,0.0,0.2276611328125,-0.466552734375,-0.0655517578125,-0.013641357421875,-0.006805419921875,0.0028076171875,H,2,2026-08-24_23-25-27,2026-08-24
0.9811798769453492,0.9118889559444779,0.0,0.0,0.43312101910828027,1.0,1.0,1.0,1.0,1.0,0.0,0.221923828125,-0.466064453125,-0.062255859375,-0.0111083984375,-0.03826904296875,0.00457763671875,H,2,2026-08-24_23-25-27,2026-08-24
0.9833514296055013,0.9287869643934822,0.0,0.0,0.40764331210191085,1.0,1.0,1.0,1.0,1.0,0.0,0.208251953125,-0.4739990234375,-0.074462890625,-0.00335693359375,-0.013885498046875,0.00372314453125,H,2,2026-08-24_23-25-27,2026-08-24
0.9819037278320666,0.9263729631864815,0.0,0.0,0.445859872611465,1.0,1.0,1.0,1.0,1.0,0.0,0.21728515625,-0.4776611328125,-0.0755615234375,-0.011322021484375,0.013641357421875,-0.0006103515625,H,2,2026-08-24_23-25-27,2026-08-24
0.9833514296055013,1.0,0.0,0.0,0.36942675159235666,1.0,1.0,0.0,1.0,1.0,0.0,0.2255859375,-0.4683837890625,-0.0704345703125,-0.015716552734375,0.008270263671875,-0.00103759765625,H,2,2026-08-24_23-25-27,2026-08-24
0.9819037278320666,0.9867229933614967,0.0,0.0,0.445859872611465,1.0,1.0,0.0,1.0,1.0,0.0,0.228515625,-0.45947265625,-0.0633544921875,-0.018585205078125,-0.02899169921875,0.003936767578125,H,2,2026-08-24_23-25-27,2026-08-24
0.9819037278320666,0.9831019915509958,0.0,0.0,0.34394904458598724,1.0,1.0,1.0,1.0,1.0,0.0,0.21142578125,-0.45458984375,-0.0694580078125,-0.010345458984375,-0.03265380859375,0.00811767578125,H,2,2026-08-24_23-25-27,2026-08-24
0.9819037278320666,0.9686179843089922,0.0,0.0,0.40764331210191085,1.0,1.0,1.0,1.0,1.0,0.0,0.216552734375,-0.470458984375,-0.082275390625,-0.008087158203125,0.0081787109375,0.009002685546875,H,2,2026-08-24_23-25-27,2026-08-24
0.9862468331523706,0.9058539529269765,0.0,0.0,0.33121019108280253,1.0,1.0,1.0,1.0,1.0,0.0,0.2178955078125,-0.4710693359375,-0.0716552734375,0.000152587890625,0.0279541015625,0.008941650390625,H,2,2026-08-24_23-25-27,2026-08-24
0.9826275787187839,1.0,0.0,0.0,0.43312101910828027,1.0,1.0,1.0,1.0,1.0,0.0,0.2305908203125,-0.4775390625,-0.06787109375,-0.020721435546875,-0.00048828125,0.006103515625,H,2,2026-08-24_23-25-27,2026-08-24
0.9811798769453492,1.0,0.0,0.0,0.34394904458598724,1.0,1.0,1.0,1.0,1.0,0.0,0.2215576171875,-0.4656982421875,-0.05810546875,-0.0189208984375,-0.02069091796875,0.009490966796875,H,2,2026-08-24_23-25-27,2026-08-24
0.9710459645313065,0.9855159927579964,0.0,0.0,0.40764331210191085,1.0,1.0,1.0,1.0,1.0,0.0,0.2127685546875,-0.4779052734375,-0.072509765625,-0.016387939453125,-0.001251220703125,0.008819580078125,H,2,2026-08-24_23-25-27,2026-08-24
0.9804560260586319,1.0,0.0,0.0,0.3184713375796178,1.0,1.0,1.0,1.0,1.0,0.0,0.2176513671875,-0.4766845703125,-0.0748291015625,-0.008209228515625,0.034423828125,0.00872802734375,H,2,2026-08-24_23-25-27,2026-08-24
0.9804560260586319,0.8913699456849729,0.0,0.0,0.4968152866242038,1.0,1.0,1.0,1.0,1.0,0.0,0.236083984375,-0.4761962890625,-0.063232421875,-0.027679443359375,0.013519287109375,0.0030517578125,H,2,2026-08-24_23-25-27,2026-08-24
0.9811798769453492,0.8974049487024743,0.0,0.0,0.34394904458598724,1.0,1.0,1.0,1.0,1.0,0.0,0.2261962890625,-0.457275390625,-0.04833984375,-0.0220947265625,-0.049072265625,0.0029296875,H,2,2026-08-24_23-25-27,2026-08-24
0.9753890698516106,0.8756789378394689,0.0,0.0,0.39490445859872614,1.0,1.0,1.0,1.0,1.0,0.0,0.208251953125,-0.47802734375,-0.075439453125,-0.00360107421875,-0.018798828125,0.00299072265625,H,2,2026-08-24_23-25-27,2026-08-24
0.9855229822656533,0.884127942063971,0.0,0.0,0.4585987261146497,1.0,1.0,1.0,1.0,1.0,0.0,0.2154541015625,-0.4691162109375,-0.0712890625,-0.011260986328125,0.01336669921875,0.002227783203125,H,2,2026-08-24_23-25-27,2026-08-24
0.9717698154180239,0.8768859384429692,0.0,0.0,0.3821656050955414,1.0,1.0,1.0,1.0,1.0,0.0,0.22705078125,-0.469482421875,-0.0621337890625,-0.010528564453125,-0.00677490234375,0.00115966796875,H,2,2026-08-24_23-25-27,2026-08-24
0.9667028592110025,0.8817139408569704,0.0,0.0,0.39490445859872614,1.0,1.0,1.0,1.0,1.0,0.0,0.2216796875,-0.4632568359375,-0.056396484375,-0.015838623046875,-0.038116455078125,0.005584716796875,H,2,2026-08-24_23-25-27,2026-08-24
0.9717698154180239,0.872057936028968,0.0,0.0,0.39490445859872614,1.0,1.0,1.0,1.0,1.0,0.0,0.2138671875,-0.4669189453125,-0.0684814453125,-0.00982666015625,-0.022491455078125,0.003753662109375,H,2,2026-08-24_23-25-27,2026-08-24
0.9717698154180239,0.8780929390464696,0.0,0.0,0.40764331210191085,1.0,1.0,1.0,1.0,1.0,0.0,0.2177734375,-0.4730224609375,-0.07275390625,-0.00238037109375,0.00482177734375,-0.000274658203125,H,2,2026-08-24_23-25-27,2026-08-24
0.9753890698516106,0.8829209414604707,0.0,0.0,0.35668789808917195,1.0,1.0,1.0,1.0,1.0,0.0,0.219482421875,-0.4658203125,-0.0679931640625,-0.001617431640625,-0.0057373046875,-0.00067138671875,H,2,2026-08-24_23-25-27,2026-08-24
0.9746652189648932,0.8889559444779722,0.0,0.0,0.40764331210191085,1.0,1.0,1.0,1.0,1.0,0.0,0.219482421875,-0.468994140625,-0.06787109375,0.001861572265625,-0.01788330078125,0.00164794921875,H,2,2026-08-24_23-25-27,2026-08-24
0.9732175171914585,0.8768859384429692,0.0,0.0,0.3184713375796178,1.0,1.0,1.0,1.0,1.0,0.0,0.2103271484375,-0.467529296875,-0.07275390625,6.103515625e-05,-0.0135498046875,0.00677490234375,H,2,2026-08-24_23-25-27,2026-08-24
0.9732175171914585,1.0,0.0,0.0,0.3821656050955414,1.0,1.0,1.0,1.0,1.0,0.0,0.213134765625,-0.4783935546875,-0.0806884765625,-0.0089111328125,0.014739990234375,0.005035400390625,H,2,2026-08-24_23-25-27,2026-08-24
0.9724936663047412,0.9299939649969825,0.0,0.0,0.267515923566879,1.0,1.0,1.0,1.0,1.0,0.0,0.2215576171875,-0.4742431640625,-0.068359375,-0.021087646484375,0.0201416015625,0.0069580078125,H,2,2026-08-24_23-25-27,2026-08-24
0.9688744118711545,0.9034399517199758,0.0,0.0,0.40764331210191085,1.0,1.0,1.0,1.0,1.0,0.0,0.2275390625,-0.4639892578125,-0.0465087890625,-0.027130126953125,-0.023040771484375,0.003936767578125,H,2,2026-08-24_23-25-27,2026-08-24
0.9732175171914585,1.0,0.0,0.0,0.39490445859872614,1.0,1.0,1.0,1.0,1.0,0.0,0.2142333984375,-0.4693603515625,-0.05908203125,-0.006439208984375,-0.03125,0.00494384765625,H,2,2026-08-24_23-25-27,2026-08-24
0.9790083242851972,0.899818949909475,0.0,0.0,0.39490445859872614,1.0,1.0,1.0,1.0,1.0,0.0,0.2139892578125,-0.4766845703125,-0.0721435546875,-0.00701904296875,0.007354736328125,0.0030517578125,H,2,2026-08-24_23-25-27,2026-08-24
0.9753890698516106,0.9143029571514786,0.0,0.0,0.40764331210191085,1.0,1.0,1.0,1.0,1.0,0.0,0.22216796875,-0.471923828125,-0.0711669921875,-0.0072021484375,0.026885986328125,-0.000457763671875,H,2,2026-08-24_23-25-27,2026-08-24
0.9761129207383279,0.8817139408569704,0.0,0.0,0.40764331210191085,1.0,1.0,1.0,1.0,1.0,0.0,0.231689453125,-0.471923828125,-0.0556640625,-0.0224609375,-0.012542724609375,0.001708984375,H,2,2026-08-24_23-25-27,2026-08-24
0.9833514296055013,0.8817139408569704,0.0,0.0,0.39490445859872614,1.0,1.0,1.0,1.0,1.0,0.0,0.218505859375,-0.4595947265625,-0.051025390625,-0.0146484375,-0.0528564453125,0.006103515625,H,2,2026-08-24_23-25-27,2026-08-24
0.9761129207383279,0.9106819553409776,0.0,0.0,0.40764331210191085,1.0,1.0,1.0,1.0,1.0,0.0,0.2100830078125,-0.482177734375,-0.072265625,-0.001556396484375,-0.013641357421875,0.006683349609375,H,2,2026-08-24_23-25-27,2026-08-24
0.9833514296055013,0.9022329511164756,0.0,0.0,0.40764331210191085,1.0,1.0,1.0,1.0,1.0,0.0,0.2198486328125,-0.4815673828125,-0.0765380859375,-0.015106201171875,0.03033447265625,0.000244140625,H,2,2026-08-24_23-25-27,2026-08-24
0.9819037278320666,1.0,0.0,0.0,0.40764331210191085,1.0,1.0,1.0,1.0,1.0,0.0,0.2275390625,-0.463134765625,-0.0555419921875,-0.024017333984375,-0.001434326171875,0.00140380859375,H,2,2026-08-24_23-25-27,2026-08-24
0.9601882012305465,0.9348219674109837,0.0,0.0,0.3057324840764331,1.0,1.0,1.0,1.0,1.0,0.0,0.109130859375,-0.4947509765625,-0.0863037109375,-0.0166015625,-0.02337646484375,0.004180908203125,H,3,2026-08-24_23-25-27,2026-08-24
0.9710459645313065,0.9312009656004828,0.0,0.10215053763440861,0.3184713375796178,1.0,1.0,1.0,1.0,1.0,0.0,0.1053466796875,-0.4940185546875,-0.0927734375,-0.01861572265625,-0.019073486328125,0.0029296875,H,3,2026-08-24_23-25-27,2026-08-24
0.9601882012305465,0.9070609535304768,0.0,0.10752688172043011,0.24203821656050956,1.0,1.0,1.0,1.0,1.0,0.0,0.103759765625,-0.483642578125,-0.0865478515625,-0.016998291015625,-0.009552001953125,0.002471923828125,H,3,2026-08-24_23-25-27,2026-08-24
0.9565689467969598,0.9251659625829813,0.0,0.0967741935483871,0.267515923566879,1.0,1.0,1.0,1.0,1.0,0.0,0.106689453125,-0.4910888671875,-0.0906982421875,-0.010498046875,-0.006439208984375,-0.000274658203125,H,3,2026-08-24_23-25-27,2026-08-24
0.9623597538906985,0.9191309595654797,0.0,0.043010752688172046,0.11464968152866242,1.0,1.0,1.0,1.0,1.0,0.0,0.103271484375,-0.4844970703125,-0.0889892578125,-0.0164794921875,-0.01348876953125,0.003692626953125,H,3,2026-08-24_23-25-27,2026-08-24
0.9652551574375678,0.9263729631864815,0.0,0.04838709677419355,0.267515923566879,1.0,1.0,1.0,1.0,1.0,0.0,0.10302734375,-0.4835205078125,-0.0849609375,-0.009002685546875,-0.018585205078125,0.007049560546875,H,3,2026-08-24_23-25-27,2026-08-24
0.9623597538906985,0.9167169583584792,0.0,0.03763440860215054,0.3821656050955414,1.0,1.0,1.0,1.0,1.0,0.0,0.09912109375,-0.4910888671875,-0.0955810546875,-0.022613525390625,-0.0137939453125,0.00830078125,H,3,2026-08-24_23-25-27,2026-08-24
0.9522258414766558,0.923958961979481,0.0,0.0,0.267515923566879,1.0,1.0,1.0,1.0,1.0,0.0,0.1021728515625,-0.4815673828125,-0.0899658203125,-0.0152587890625,-0.004638671875,0.007232666015625,H,3,2026-08-24_23-25-27,2026-08-24
0.9667028592110025,0.9203379601689801,0.0,0.11290322580645161,0.267515923566879,1.0,1.0,1.0,1.0,1.0,0.0,0.1041259765625,-0.4896240234375,-0.091064453125,-0.014495849609375,-0.001373291015625,0.005767822265625,H,3,2026-08-24_23-25-27,2026-08-24
0.9565689467969598,0.9227519613759807,0.0,0.0,0.25477707006369427,1.0,1.0,1.0,1.0,1.0,0.0,0.1048583984375,-0.482421875,-0.086669921875,-0.010406494140625,-0.009613037109375,0.00396728515625,H,3,2026-08-24_23-25-27,2026-08-24
0.9601882012305465,0.9155099577549789,0.0,0.0,0.3821656050955414,1.0,1.0,1.0,1.0,1.0,0.0,0.1041259765625,-0.4915771484375,-0.097412109375,-0.003509521484375,-0.011322021484375,0.0008544921875,H,3,2026-08-24_23-25-27,2026-08-24
0.9601882012305465,0.936028968014484,0.0,0.05913978494623656,0.2802547770700637,1.0,1.0,1.0,1.0,1.0,0.0,0.10498046875,-0.4951171875,-0.0924072265625,-0.008392333984375,-0.007720947265625,0.00018310546875,H,3,2026-08-24_23-25-27,2026-08-24
0.9616359030039812,0.9082679541339771,0.0,0.06989247311827956,0.2802547770700637,1.0,1.0,1.0,1.0,1.0,0.0,0.10791015625,-0.4974365234375,-0.0946044921875,-0.008453369140625,-0.00341796875,-0.003265380859375,H,3,2026-08-24_23-25-27,2026-08-24
0.9601882012305465,0.9106819553409776,0.0,0.026881720430107527,0.24203821656050956,1.0,1.0,1.0,1.0,1.0,0.0,0.1072998046875,-0.4940185546875,-0.0928955078125,-0.0107421875,-0.004547119140625,-0.002288818359375,H,3,2026-08-24_23-25-27,2026-08-24
0.9551212450235251,0.9263729631864815,0.0,0.05913978494623656,0.2929936305732484,1.0,1.0,1.0,1.0,1.0,0.0,0.1063232421875,-0.491943359375,-0.08544921875,-0.011199951171875,-0.004669189453125,-0.000823974609375,H,3,2026-08-24_23-25-27,2026-08-24
0.9594643503438292,0.9034399517199758,0.0,0.08602150537634409,0.21656050955414013,1.0,1.0,1.0,1.0,1.0,0.0,0.1080322265625,-0.5009765625,-0.0877685546875,-0.01251220703125,-0.00836181640625,-0.0028076171875,H,3,2026-08-24_23-25-27,2026-08-24
0.9681505609844372,0.9179239589619795,0.0,0.0,0.267515923566879,1.0,1.0,1.0,1.0,1.0,0.0,0.1060791015625,-0.4947509765625,-0.087646484375,-0.01568603515625,-0.0093994140625,-0.00286865234375,H,3,2026-08-24_23-25-27,2026-08-24
0.9565689467969598,0.8986119493059747,0.0,0.0,0.3184713375796178,1.0,1.0,1.0,1.0,1.0,0.0,0.1075439453125,-0.4915771484375,-0.091064453125,-0.015777587890625,0.00115966796875,-0.00103759765625,H,3,2026-08-24_23-25-27,2026-08-24
0.9565689467969598,0.9299939649969825,0.0,0.026881720430107527,0.34394904458598724,1.0,1.0,1.0,1.0,1.0,0.0,0.10400390625,-0.4937744140625,-0.081298828125,-0.01800537109375,-0.003387451171875,0.00048828125,H,3,2026-08-24_23-25-27,2026-08-24
0.9536735432500905,0.9082679541339771,0.0,0.0,0.22929936305732485,1.0,1.0,1.0,1.0,1.0,0.0,0.110107421875,-0.4896240234375,-0.0804443359375,-0.014801025390625,-0.016815185546875,0.002288818359375,H,3,2026-08-24_23-25-27,2026-08-24
0.9717698154180239,0.9046469523234761,0.0,0.0,0.22929936305732485,1.0,1.0,1.0,1.0,1.0,0.0,0.1025390625,-0.4923095703125,-0.0919189453125,-0.018310546875,-0.0179443359375,0.004119873046875,H,3,2026-08-24_23-25-27,2026-08-24
0.9601882012305465,0.9034399517199758,0.0,0.0967741935483871,0.24203821656050956,1.0,1.0,1.0,1.0,1.0,0.0,0.1033935546875,-0.48779296875,-0.0911865234375,-0.029693603515625,-0.00335693359375,0.005279541015625,H,3,2026-08-24_23-25-27,2026-08-24
0.9565689467969598,0.9155099577549789,0.0,0.053763440860215055,0.267515923566879,1.0,1.0,1.0,1.0,1.0,0.0,0.1048583984375,-0.4879150390625,-0.089111328125,-0.027435302734375,0.012481689453125,0.005157470703125,H,3,2026-08-24_23-25-27,2026-08-24
0.9572927976836771,0.9046469523234761,0.0,0.04838709677419355,0.21656050955414013,1.0,1.0,1.0,1.0,1.0,0.0,0.1041259765625,-0.48291015625,-0.0841064453125,-0.018585205078125,0.003082275390625,0.00616455078125,H,3,2026-08-24_23-25-27,2026-08-24
0.9681505609844372,0.9143029571514786,0.0,0.04838709677419355,0.267515923566879,1.0,1.0,1.0,1.0,1.0,0.0,0.1051025390625,-0.48974609375,-0.084228515625,-0.018585205078125,-0.010650634765625,0.00689697265625,H,3,2026-08-24_23-25-27,2026-08-24
0.9493304379297864,0.9155099577549789,0.0,0.10752688172043011,0.3184713375796178,1.0,1.0,1.0,1.0,1.0,0.0,0.10302734375,-0.4912109375,-0.0833740234375,-0.009552001953125,-0.018341064453125,0.005401611328125,H,3,2026-08-24_23-25-27,2026-08-24
0.9601882012305465,0.9046469523234761,0.0,0.0,0.17834394904458598,1.0,1.0,1.0,1.0,1.0,0.0,0.105712890625,-0.4976806640625,-0.0975341796875,-0.012969970703125,-0.0054931640625,-0.000213623046875,H,3,2026-08-24_23-25-27,2026-08-24
0.9529496923633731,0.9215449607724804,0.0,0.010752688172043012,0.3184713375796178,1.0,1.0,1.0,1.0,1.0,0.0,0.1055908203125,-0.489990234375,-0.0941162109375,-0.015228271484375,0.0078125,-0.000823974609375,H,3,2026-08-24_23-25-27,2026-08-24
0.9601882012305465,0.9106819553409776,0.0,0.005376344086021506,0.33121019108280253,1.0,1.0,1.0,1.0,1.0,0.0,0.108642578125,-0.4876708984375,-0.0858154296875,-0.01788330078125,-0.003021240234375,0.001129150390625,H,3,2026-08-24_23-25-27,2026-08-24
0.9587404994571118,0.9070609535304768,0.0,0.03225806451612903,0.22929936305732485,1.0,1.0,1.0,1.0,1.0,0.0,0.1068115234375,-0.4847412109375,-0.0823974609375,-0.021484375,-0.0167236328125,0.00250244140625,H,3,2026-08-24_23-25-27,2026-08-24
0.9623597538906985,0.9058539529269765,0.0,0.016129032258064516,0.21656050955414013,1.0,1.0,1.0,1.0,1.0,0.0,0.10546875,-0.4892578125,-0.094482421875,-0.020660400390625,-0.01007080078125,0.00274658203125,H,3,2026-08-24_23-25-27,2026-08-24
0.9580166485703945,0.9167169583584792,0.0,0.03763440860215054,0.24203821656050956,1.0,1.0,1.0,1.0,1.0,0.0,0.1104736328125,-0.483154296875,-0.09033203125,-0.016754150390625,0.003570556640625,3.0517578125e-05,H,3,2026-08-24_23-25-27,2026-08-24
0.9601882012305465,0.9227519613759807,0.0,0.04838709677419355,0.15286624203821655,1.0,1.0,1.0,1.0,1.0,0.0,0.1099853515625,-0.4898681640625,-0.080322265625,-0.00616455078125,0.0009765625,-0.001983642578125,H,3,2026-08-24_23-25-27,2026-08-24
0.9580166485703945,0.9143029571514786,0.0,0.04838709677419355,0.3184713375796178,1.0,1.0,1.0,1.0,1.0,0.0,0.107666015625,-0.4866943359375,-0.0859375,-0.003570556640625,-0.00933837890625,0.00146484375,H,3,2026-08-24_23-25-27,2026-08-24
0.9572927976836771,0.9227519613759807,0.0,0.043010752688172046,0.267515923566879,1.0,1.0,1.0,1.0,1.0,0.0,0.112548828125,-0.4930419921875,-0.09326171875,-0.010955810546875,-0.012237548828125,0.007293701171875,H,3,2026-08-24_23-25-27,2026-08-24
0.9594643503438292,0.9227519613759807,0.0,0.06989247311827956,0.34394904458598724,1.0,1.0,1.0,1.0,1.0,0.0,0.1094970703125,-0.494140625,-0.0926513671875,-0.020416259765625,-0.0125732421875,0.010009765625,H,3,2026-08-24_23-25-27,2026-08-24
0.9565689467969598,0.9094749547374774,0.0,0.0,0.33121019108280253,1.0,1.0,1.0,1.0,1.0,0.0,0.10986328125,-0.49658203125,-0.082275390625,-0.012664794921875,0.003143310546875,0.004669189453125,H,3,2026-08-24_23-25-27,2026-08-24
0.9486065870430691,0.9143029571514786,0.0,0.0,0.2929936305732484,1.0,1.0,1.0,1.0,1.0,0.0,0.113037109375,-0.497802734375,-0.0880126953125,-0.0069580078125,0.00787353515625,-0.00177001953125,H,3,2026-08-24_23-25-27,2026-08-24
0.9601882012305465,0.9082679541339771,0.0,0.0,0.22929936305732485,1.0,1.0,1.0,1.0,1.0,0.0,0.109375,-0.493896484375,-0.0782470703125,-0.003143310546875,-0.004669189453125,-0.00567626953125,H,3,2026-08-24_23-25-27,2026-08-24
0.9601882012305465,0.9106819553409776,0.0,0.04838709677419355,0.22929936305732485,1.0,1.0,1.0,1.0,1.0,0.0,0.109619140625,-0.4959716796875,-0.0865478515625,-0.00958251953125,-0.015411376953125,-0.00469970703125,H,3,2026-08-24_23-25-27,2026-08-24
0.9630836047774158,0.9179239589619795,0.0,0.0,0.24203821656050956,1.0,1.0,1.0,1.0,1.0,0.0,0.242431640625,-0.4527587890625,0.0914306640625,-0.01519775390625,-0.025146484375,0.00238037109375,H,4,2026-08-24_23-25-27,2026-08-24
0.9500542888165038,0.9505129752564876,0.0,0.0,0.25477707006369427,1.0,1.0,1.0,1.0,1.0,1.0,0.2469482421875,-0.46240234375,0.082763671875,-0.01593017578125,-0.004730224609375,-0.003204345703125,H,4,2026-08-24_23-25-27,2026-08-24
0.9449873326094824,0.9577549788774894,0.0,0.0,0.1910828025477707,1.0,1.0,1.0,1.0,1.0,1.0,0.2464599609375,-0.4603271484375,0.0849609375,-0.018829345703125,6.103515625e-05,-0.00457763671875,H,4,2026-08-24_23-25-27,2026-08-24
0.9674267100977199,0.9613759806879904,0.0,0.0,0.24203821656050956,1.0,1.0,1.0,1.0,1.0,0.0,0.245361328125,-0.44873046875,0.0826416015625,-0.0177001953125,-0.01031494140625,0.00579833984375,H,4,2026-08-24_23-25-27,2026-08-24
0.9478827361563518,0.9806879903439951,0.0,0.0,0.24203821656050956,1.0,1.0,1.0,1.0,1.0,0.0,0.249755859375,-0.4639892578125,0.0780029296875,-0.022430419921875,-0.017974853515625,0.0086669921875,H,4,2026-08-24_23-25-27,2026-08-24
0.9739413680781759,0.9806879903439951,0.0,0.0,0.08917197452229299,1.0,1.0,1.0,1.0,1.0,0.0,0.2442626953125,-0.4593505859375,0.08544921875,-0.019195556640625,-0.018310546875,0.007598876953125,H,4,2026-08-24_23-25-27,2026-08-24
0.9623597538906985,0.9541339770669885,0.0,0.0,0.24203821656050956,1.0,1.0,1.0,1.0,1.0,1.0,0.242431640625,-0.4649658203125,0.081298828125,-0.013946533203125,-0.007537841796875,0.0018310546875,H,4,2026-08-24_23-25-27,2026-08-24
0.9638074556641332,0.9806879903439951,0.0,0.0,0.21656050955414013,1.0,1.0,1.0,1.0,1.0,1.0,0.24462890625,-0.465087890625,0.072265625,-0.009307861328125,-0.001312255859375,-0.004547119140625,H,4,2026-08-24_23-25-27,2026-08-24
0.9587404994571118,0.9818949909474954,0.0,0.0,0.3184713375796178,1.0,1.0,1.0,1.0,1.0,1.0,0.2452392578125,-0.461669921875,0.0753173828125,-0.013946533203125,0.000579833984375,-0.0035400390625,H,4,2026-08-24_23-25-27,2026-08-24
0.9486065870430691,0.9662039831019915,0.0,0.0,0.22929936305732485,1.0,1.0,1.0,1.0,1.0,1.0,0.2408447265625,-0.463623046875,0.0731201171875,-0.02191162109375,-0.000396728515625,0.002227783203125,H,4,2026-08-24_23-25-27,2026-08-24
0.9558450959102425,0.9770669885334943,0.0,0.0,0.24203821656050956,1.0,1.0,1.0,1.0,1.0,1.0,0.24462890625,-0.46484375,0.0731201171875,-0.032867431640625,0.0028076171875,0.0076904296875,H,4,2026-08-24_23-25-27,2026-08-24
0.9493304379297864,0.9806879903439951,0.0,0.0,0.21656050955414013,1.0,1.0,1.0,1.0,1.0,1.0,0.2503662109375,-0.4591064453125,0.0826416015625,-0.03082275390625,-0.00030517578125,0.0079345703125,H,4,2026-08-24_23-25-27,2026-08-24
0.9601882012305465,0.9975859987929994,0.0,0.0,0.12738853503184713,1.0,1.0,1.0,1.0,1.0,1.0,0.25390625,-0.46044921875,0.0877685546875,-0.02105712890625,-0.013427734375,0.004150390625,H,4,2026-08-24_23-25-27,2026-08-24
0.9551212450235251,0.9794809897404949,0.0,0.0,0.16560509554140126,1.0,1.0,1.0,1.0,1.0,1.0,0.250244140625,-0.462158203125,0.0755615234375,-0.005126953125,-0.0078125,-0.00299072265625,H,4,2026-08-24_23-25-27,2026-08-24
0.9572927976836771,0.9553409776704889,0.0,0.0,0.20382165605095542,1.0,1.0,1.0,1.0,1.0,1.0,0.2459716796875,-0.4619140625,0.0743408203125,-0.010345458984375,-0.00482177734375,-0.006256103515625,H,4,2026-08-24_23-25-27,2026-08-24
0.9601882012305465,0.9806879903439951,0.0,0.0,0.33121019108280253,1.0,1.0,1.0,1.0,1.0,1.0,0.23974609375,-0.4578857421875,0.0830078125,-0.018707275390625,-0.00726318359375,0.001068115234375,H,4,2026-08-24_23-25-27,2026-08-24
0.9630836047774158,0.9710319855159928,0.0,0.0,0.3184713375796178,1.0,1.0,1.0,1.0,1.0,1.0,0.2479248046875,-0.46044921875,0.0814208984375,-0.0323486328125,-0.0054931640625,0.005859375,H,4,2026-08-24_23-25-27,2026-08-24
0.9674267100977199,0.9698249849124925,0.0,0.0,0.267515923566879,1.0,1.0,1.0,1.0,1.0,1.0,0.23974609375,-0.456298828125,0.0848388671875,-0.026031494140625,-0.01239013671875,0.00555419921875,H,4,2026-08-24_23-25-27,2026-08-24
0.9507781397032211,0.9843089921544961,0.0,0.0,0.267515923566879,1.0,1.0,1.0,1.0,1.0,1.0,0.24560546875,-0.4586181640625,0.08642578125,-0.003082275390625,-0.007568359375,-0.000152587890625,H,4,2026-08-24_23-25-27,2026-08-24
0.9601882012305465,0.9770669885334943,0.0,0.0,0.21656050955414013,1.0,1.0,1.0,1.0,1.0,1.0,0.2481689453125,-0.4595947265625,0.0772705078125,-0.008026123046875,0.001678466796875,-0.004180908203125,H,4,2026-08-24_23-25-27,2026-08-24
0.9601882012305465,0.9589619794809897,0.0,0.0,0.21656050955414013,1.0,1.0,1.0,1.0,1.0,1.0,0.2515869140625,-0.4609375,0.078857421875,-0.01397705078125,-0.006927490234375,0.00042724609375,H,4,2026-08-24_23-25-27,2026-08-24
0.9536735432500905,0.9420639710319855,0.0,0.0,0.22929936305732485,1.0,1.0,1.0,1.0,1.0,1.0,0.249267578125,-0.4527587890625,0.0814208984375,-0.023681640625,-0.021209716796875,0.0078125,H,4,2026-08-24_23-25-27,2026-08-24
0.9601882012305465,0.9589619794809897,0.0,0.0,0.267515923566879,1.0,1.0,1.0,1.0,1.0,1.0,0.2501220703125,-0.459228515625,0.0772705078125,-0.017822265625,-0.019805908203125,0.0064697265625,H,4,2026-08-24_23-25-27,2026-08-24
0.9536735432500905,0.9529269764634882,0.0,0.0,0.16560509554140126,1.0,1.0,1.0,1.0,1.0,1.0,0.2410888671875,-0.4625244140625,0.082275390625,-0.012542724609375,9.1552734375e-05,-0.0013427734375,H,4,2026-08-24_23-25-27,2026-08-24
0.9572927976836771,0.9529269764634882,0.0,0.0,0.11464968152866242,1.0,1.0,1.0,1.0,1.0,0.0,0.250732421875,-0.4716796875,0.06787109375,-0.013824462890625,0.018341064453125,-0.00677490234375,H,4,2026-08-24_23-25-27,2026-08-24
0.9522258414766558,0.9420639710319855,0.0,0.0,0.17834394904458598,1.0,1.0,1.0,1.0,1.0,0.0,0.249267578125,-0.45556640625,0.0845947265625,-0.00970458984375,0.002197265625,-0.00567626953125,H,4,2026-08-24_23-25-27,2026-08-24
0.9594643503438292,0.9541339770669885,0.0,0.0,0.07643312101910828,1.0,1.0,1.0,1.0,1.0,0.0,0.247314453125,-0.4659423828125,0.0804443359375,-0.000213623046875,-0.01214599609375,-0.0020751953125,H,4,2026-08-24_23-25-27,2026-08-24
0.9609120521172638,0.9432709716354858,0.0,0.0,0.17834394904458598,1.0,1.0,1.0,1.0,1.0,0.0,0.2452392578125,-0.466064453125,0.0753173828125,-0.01129150390625,-0.005950927734375,-0.00213623046875,H,4,2026-08-24_23-25-27,2026-08-24
0.9580166485703945,0.9432709716354858,0.0,0.0,0.24203821656050956,1.0,1.0,1.0,1.0,1.0,0.0,0.248291015625,-0.4595947265625,0.0784912109375,-0.0233154296875,-0.004852294921875,0.00164794921875,H,4,2026-08-24_23-25-27,2026-08-24
0.9638074556641332,0.9432709716354858,0.0,0.0,0.3821656050955414,1.0,1.0,1.0,1.0,1.0,0.0,0.247802734375,-0.4564208984375,0.07666015625,-0.025909423828125,-0.001861572265625,0.00543212890625,H,4,2026-08-24_23-25-27,2026-08-24
0.9370249728555917,0.9227519613759807,0.0,0.0,0.20382165605095542,1.0,1.0,1.0,1.0,1.0,0.0,0.2484130859375,-0.4598388671875,0.0753173828125,-0.02783203125,-0.0009765625,0.003692626953125,H,4,2026-08-24_23-25-27,2026-08-24
0.9572927976836771,0.9408569704284853,0.0,0.0,0.08917197452229299,1.0,1.0,1.0,1.0,1.0,0.0,0.249267578125,-0.4539794921875,0.083740234375,-0.017333984375,-0.00592041015625,0.001678466796875,H,4,2026-08-24_23-25-27,2026-08-24
0.9616359030039812,0.9336149668074833,0.0,0.0,0.267515923566879,1.0,1.0,1.0,1.0,1.0,0.0,0.246826171875,-0.458984375,0.08154296875,-0.010009765625,-0.011383056640625,3.0517578125e-05,H,4,2026-08-24_23-25-27,2026-08-24
0.9638074556641332,0.9493059746529873,0.0,0.0,0.14012738853503184,1.0,1.0,1.0,1.0,1.0,0.0,0.2464599609375,-0.464599609375,0.071533203125,-0.0145263671875,-0.00311279296875,9.1552734375e-05,H,4,2026-08-24_23-25-27,2026-08-24
0.9507781397032211,0.9179239589619795,0.0,0.0,0.24203821656050956,1.0,1.0,1.0,1.0,1.0,0.0,0.2437744140625,-0.46826171875,0.0673828125,-0.02593994140625,0.001678466796875,-0.00030517578125,H,4,2026-08-24_23-25-27,2026-08-24
0.9565689467969598,0.9408569704284853,0.0,0.0,0.1910828025477707,1.0,1.0,1.0,1.0,1.0,0.0,0.240966796875,-0.4736328125,0.06982421875,-0.0335693359375,0.015716552734375,-0.005157470703125,H,4,2026-08-24_23-25-27,2026-08-24
0.9601882012305465,0.9468919734459867,0.0,0.026881720430107527,0.1910828025477707,1.0,1.0,1.0,1.0,1.0,0.0,0.2432861328125,-0.4691162109375,0.0751953125,-0.0382080078125,0.02191162109375,-0.01031494140625,H,4,2026-08-24_23-25-27,2026-08-24
0.9601882012305465,0.9263729631864815,0.0,0.0,0.2802547770700637,1.0,1.0,1.0,1.0,1.0,0.0,0.2559814453125,-0.4691162109375,0.0858154296875,-0.031707763671875,0.01690673828125,-0.010955810546875,H,4,2026-08-24_23-25-27,2026-08-24
0.9580166485703945,0.9251659625829813,0.0,0.0,0.2929936305732484,1.0,1.0,1.0,1.0,1.0,0.0,0.25048828125,-0.4613037109375,0.0863037109375,-0.02667236328125,0.00238037109375,-0.01220703125,H,4,2026-08-24_23-25-27,2026-08-24
0.9601882012305465,0.9034399517199758,0.0,0.021505376344086023,0.21656050955414013,1.0,1.0,1.0,1.0,1.0,0.0,0.253662109375,-0.461669921875,0.0828857421875,-0.02734375,0.0101318359375,-0.011749267578125,H,4,2026-08-24_23-25-27,2026-08-24
0.9819037278320666,0.9420639710319855,1.0,1.0,0.0,1.0,0.0,0.0,0.0,1.0,0.0,0.5849609375,0.0989990234375,-0.04541015625,-0.04156494140625,-0.064971923828125,0.02203369140625,A,0,2026-08-24_23-25-27,2026-08-24
0.9833514296055013,0.923958961979481,1.0,1.0,0.08917197452229299,1.0,0.0,0.0,0.0,1.0,0.0,0.5777587890625,0.0986328125,-0.0699462890625,-0.030792236328125,-0.051910400390625,0.03228759765625,A,0,2026-08-24_23-25-27,2026-08-24
0.9833514296055013,0.9348219674109837,1.0,1.0,0.050955414012738856,1.0,0.0,0.0,0.0,1.0,0.0,0.5550537109375,0.077392578125,-0.08349609375,-0.040313720703125,-0.0294189453125,0.0286865234375,A,0,2026-08-24_23-25-27,2026-08-24
0.9797321751719146,0.9553409776704889,1.0,1.0,0.03821656050955414,1.0,0.0,0.0,0.0,1.0,0.0,0.542724609375,0.07275390625,-0.0714111328125,-0.04534912109375,-0.018280029296875,0.014373779296875,A,0,2026-08-24_23-25-27,2026-08-24
0.9826275787187839,0.9324079662039831,1.0,1.0,0.06369426751592357,1.0,0.0,0.0,0.0,1.0,0.0,0.5164794921875,0.0865478515625,-0.06201171875,-0.044952392578125,-0.018951416015625,0.0162353515625,A,0,2026-08-24_23-25-27,2026-08-24
0.9790083242851972,0.9420639710319855,1.0,1.0,0.0,1.0,0.0,0.0,0.0,1.0,0.0,0.498046875,0.075439453125,-0.0557861328125,-0.041290283203125,-0.018707275390625,0.01593017578125,A,0,2026-08-24_23-25-27,2026-08-24
0.9826275787187839,0.9396499698249849,1.0,1.0,0.07643312101910828,1.0,0.0,0.0,0.0,1.0,0.0,0.4820556640625,0.09033203125,-0.0330810546875,-0.0435791015625,-0.0162353515625,0.012664794921875,A,0,2026-08-24_23-25-27,2026-08-24
0.9833514296055013,0.9372359686179843,1.0,1.0,0.012738853503184714,1.0,0.0,0.0,0.0,1.0,0.0,0.48779296875,0.099853515625,-0.0006103515625,-0.032806396484375,-0.026275634765625,0.016326904296875,A,0,2026-08-24_23-25-27,2026-08-24
0.9811798769453492,0.9336149668074833,1.0,1.0,0.0,1.0,0.0,0.0,0.0,1.0,0.0,0.49462890625,0.0897216796875,0.0093994140625,-0.02117919921875,-0.040008544921875,0.02215576171875,A,0,2026-08-24_23-25-27,2026-08-24
0.9819037278320666,0.9384429692214846,1.0,1.0,0.06369426751592357,1.0,0.0,0.0,0.0,1.0,0.0,0.492431640625,0.107666015625,0.013671875,-0.008148193359375,-0.043701171875,0.043212890625,A,0,2026-08-24_23-25-27,2026-08-24
0.9811798769453492,0.9408569704284853,1.0,1.0,0.07643312101910828,1.0,0.0,0.0,0.0,1.0,0.0,0.5216064453125,0.073486328125,0.0015869140625,0.005950927734375,-0.051300048828125,0.055572509765625,A,0,2026-08-24_23-25-27,2026-08-24
0.9833514296055013,0.9420639710319855,1.0,1.0,0.0,1.0,0.0,0.0,0.0,1.0,0.0,0.660400390625,0.027099609375,-0.010498046875,-0.04376220703125,-0.028167724609375,0.049468994140625,A,0,2026-08-24_23-25-27,2026-08-24
0.9797321751719146,0.936028968014484,1.0,1.0,0.06369426751592357,1.0,0.0,0.0,0.0,1.0,0.0,0.6923828125,0.0592041015625,-0.043212890625,-0.01531982421875,-0.087493896484375,0.0147705078125,A,0,2026-08-24_23-25-27,2026-08-24
0.9797321751719146,0.9480989740494871,1.0,1.0,0.07643312101910828,1.0,0.0,0.0,0.0,1.0,0.0,0.56396484375,0.05859375,-0.0665283203125,0.021636962890625,-0.08746337890625,0.008453369140625,A,0,2026-08-24_23-25-27,2026-08-24
0.9811798769453492,0.9372359686179843,1.0,1.0,0.03821656050955414,1.0,0.0,0.0,0.0,1.0,0.0,0.5648193359375,0.0833740234375,-0.0731201171875,0.01177978515625,-0.06744384765625,-0.018646240234375,A,0,2026-08-24_23-25-27,2026-08-24
0.9833514296055013,0.9299939649969825,1.0,1.0,0.11464968152866242,1.0,0.0,0.0,0.0,1.0,0.0,0.603759765625,0.08349609375,-0.0762939453125,0.01025390625,-0.05999755859375,-0.02825927734375,A,0,2026-08-24_23-25-27,2026-08-24
0.9833514296055013,0.9420639710319855,1.0,1.0,0.06369426751592357,1.0,0.0,0.0,0.0,1.0,0.0,0.58203125,0.1044921875,-0.0875244140625,-0.014739990234375,-0.055633544921875,-0.020843505859375,A,0,2026-08-24_23-25-27,2026-08-24
0.9768367716250452,0.9336149668074833,1.0,1.0,0.012738853503184714,1.0,0.0,0.0,0.0,1.0,0.0,0.5489501953125,0.1075439453125,-0.1116943359375,0.0042724609375,-0.06640625,-0.0184326171875,A,0,2026-08-24_23-25-27,2026-08-24
0.9826275787187839,0.9408569704284853,1.0,1.0,0.03821656050955414,1.0,0.0,0.0,0.0,1.0,0.0,0.5333251953125,0.09375,-0.1141357421875,0.000244140625,-0.0421142578125,-0.015777587890625,A,0,2026-08-24_23-25-27,2026-08-24
0.9833514296055013,0.9420639710319855,1.0,1.0,0.03821656050955414,1.0,0.0,0.0,0.0,1.0,0.0,0.528076171875,0.103271484375,-0.100341796875,-0.01007080078125,-0.016021728515625,-0.004119873046875,A,0,2026-08-24_23-25-27,2026-08-24
0.9768367716250452,0.9312009656004828,1.0,1.0,0.08917197452229299,1.0,0.0,0.0,0.0,1.0,0.0,0.539306640625,0.105224609375,-0.083984375,-0.00604248046875,-0.0206298828125,0.005859375,A,0,2026-08-24_23-25-27,2026-08-24
0.9811798769453492,0.9420639710319855,1.0,1.0,0.012738853503184714,1.0,0.0,0.0,0.0,1.0,0.0,0.5406494140625,0.0845947265625,-0.0684814453125,-0.000823974609375,-0.020355224609375,0.01702880859375,A,0,2026-08-24_23-25-27,2026-08-24
0.9819037278320666,0.9420639710319855,1.0,1.0,0.0,1.0,0.0,0.0,0.0,1.0,0.0,0.53955078125,0.0809326171875,-0.0682373046875,0.0050048828125,-0.010498046875,0.022613525390625,A,0,2026-08-24_23-25-27,2026-08-24
0.9753890698516106,0.9336149668074833,1.0,1.0,0.0,1.0,0.0,0.0,0.0,1.0,0.0,0.5323486328125,0.0833740234375,-0.059814453125,0.00830078125,-0.004302978515625,0.02484130859375,A,0,2026-08-24_23-25-27,2026-08-24
0.9826275787187839,0.9251659625829813,1.0,1.0,0.0,1.0,0.0,0.0,0.0,1.0,0.0,0.5439453125,0.0823974609375,-0.0484619140625,-0.00396728515625,-0.0010986328125,0.023406982421875,A,0,2026-08-24_23-25-27,2026-08-24
0.9819037278320666,0.9372359686179843,1.0,1.0,0.0,1.0,0.0,0.0,0.0,1.0,0.0,0.561279296875,0.0889892578125,-0.0389404296875,0.00262451171875,-0.010986328125,0.028839111328125,A,0,2026-08-24_23-25-27,2026-08-24
0.9819037278320666,0.9287869643934822,1.0,1.0,0.06369426751592357,1.0,0.0,0.0,0.0,1.0,0.0,0.5594482421875,0.0869140625,-0.0465087890625,-0.005645751953125,-0.024871826171875,0.029296875,A,0,2026-08-24_23-25-27,2026-08-24
0.9753890698516106,0.9336149668074833,1.0,1.0,0.06369426751592357,1.0,0.0,0.0,0.0,1.0,0.0,0.555419921875,0.1068115234375,-0.044921875,-0.00347900390625,-0.037200927734375,0.03582763671875,A,0,2026-08-24_23-25-27,2026-08-24
0.9753890698516106,0.9372359686179843,1.0,1.0,0.0,1.0,0.0,0.0,0.0,1.0,0.0,0.5533447265625,0.0667724609375,-0.070068359375,0.002349853515625,-0.032958984375,0.026641845703125,A,0,2026-08-24_23-25-27,2026-08-24
0.9847991313789359,0.936028968014484,1.0,1.0,0.0,1.0,0.0,0.0,0.0,1.0,0.0,0.5589599609375,0.080078125,-0.063232421875,-0.003204345703125,-0.01361083984375,0.01507568359375,A,0,2026-08-24_23-25-27,2026-08-24
0.9811798769453492,0.9505129752564876,1.0,1.0,0.06369426751592357,1.0,0.0,0.0,0.0,1.0,0.0,0.5706787109375,0.0772705078125,-0.0592041015625,-0.004241943359375,-0.017486572265625,0.013580322265625,A,0,2026-08-24_23-25-27,2026-08-24
0.9855229822656533,0.936028968014484,1.0,1.0,0.012738853503184714,1.0,0.0,0.0,0.0,1.0,0.0,0.570556640625,0.0791015625,-0.0648193359375,-0.019073486328125,-0.027801513671875,0.0078125,A,0,2026-08-24_23-25-27,2026-08-24
0.9819037278320666,0.9444779722389861,1.0,1.0,0.08917197452229299,1.0,0.0,0.0,0.0,1.0,0.0,0.5538330078125,0.0780029296875,-0.07470703125,-0.01788330078125,-0.02130126953125,0.005096435546875,A,0,2026-08-24_23-25-27,2026-08-24
0.9833514296055013,0.9312009656004828,1.0,1.0,0.14012738853503184,1.0,0.0,0.0,0.0,1.0,0.0,0.5516357421875,0.073974609375,-0.0771484375,-0.018524169921875,-0.006317138671875,0.000640869140625,A,0,2026-08-24_23-25-27,2026-08-24
0.9833514296055013,0.9408569704284853,1.0,1.0,0.025477707006369428,1.0,0.0,0.0,0.0,1.0,0.0,0.5439453125,0.09130859375,-0.072021484375,-0.01629638671875,-0.001922607421875,-0.0001220703125,A,0,2026-08-24_23-25-27,2026-08-24
0.9819037278320666,0.9384429692214846,1.0,1.0,0.07643312101910828,1.0,0.0,0.0,0.0,1.0,0.0,0.548828125,0.081298828125,-0.0811767578125,-0.01910400390625,-0.00836181640625,0.005584716796875,A,0,2026-08-24_23-25-27,2026-08-24
0.9782844733984799,0.9287869643934822,1.0,1.0,0.07643312101910828,1.0,0.0,0.0,0.0,1.0,0.0,0.54541015625,0.07568359375,-0.084716796875,-0.022918701171875,-0.01470947265625,0.009552001953125,A,0,2026-08-24_23-25-27,2026-08-24
0.9775606225117626,0.9408569704284853,1.0,1.0,0.03821656050955414,1.0,0.0,0.0,0.0,1.0,0.0,0.5416259765625,0.0682373046875,-0.089599609375,-0.024566650390625,-0.0062255859375,0.00872802734375,A,0,2026-08-24_23-25-27,2026-08-24
0.9790083242851972,0.9348219674109837,1.0,1.0,0.10191082802547771,1.0,0.0,0.0,0.0,1.0,0.0,0.55322265625,0.06591796875,-0.0838623046875,-0.032318115234375,0.000762939453125,0.00537109375,A,0,2026-08-24_23-25-27,2026-08-24
0.9790083242851972,0.9275799637899819,1.0,1.0,0.07643312101910828,1.0,0.0,0.0,0.0,1.0,0.0,0.551025390625,0.0799560546875,-0.067626953125,-0.03118896484375,-0.00732421875,0.00921630859375,A,0,2026-08-24_23-25-27,2026-08-24
1.0,0.9215449607724804,1.0,1.0,0.0,1.0,0.0,0.0,0.0,1.0,0.0,0.55517578125,0.0343017578125,-0.0660400390625,-0.005767822265625,-0.001861572265625,0.00323486328125,A,1,2026-08-24_23-25-27,2026-08-24
1.0,0.9299939649969825,1.0,1.0,0.0,1.0,0.0,0.0,0.0,1.0,0.0,0.5543212890625,0.039794921875,-0.06689453125,-0.0008544921875,-0.00543212890625,0.0037841796875,A,1,2026-08-24_23-25-27,2026-08-24
1.0,0.9312009656004828,1.0,1.0,0.0,1.0,0.0,0.0,0.0,1.0,0.0,0.552001953125,0.033447265625,-0.0660400390625,-0.003570556640625,-0.0084228515625,0.00335693359375,A,1,2026-08-24_23-25-27,2026-08-24
1.0,0.9287869643934822,1.0,1.0,0.0,1.0,0.0,0.0,0.0,1.0,0.0,0.55224609375,0.0386962890625,-0.069091796875,-0.010040283203125,-0.004547119140625,0.001007080078125,A,1,2026-08-24_23-25-27,2026-08-24
1.0,0.9263729631864815,1.0,1.0,0.0,1.0,0.0,0.0,0.0,1.0,0.0,0.5548095703125,0.038330078125,-0.07275390625,-0.011444091796875,-0.002655029296875,0.00115966796875,A,1,2026-08-24_23-25-27,2026-08-24
1.0,0.9336149668074833,1.0,1.0,0.0,1.0,0.0,0.0,0.0,1.0,0.0,0.5548095703125,0.0355224609375,-0.0694580078125,-0.008544921875,-0.00616455078125,0.000518798828125,A,1,2026-08-24_23-25-27,2026-08-24
1.0,0.9263729631864815,1.0,1.0,0.0,1.0,0.0,0.0,0.0,1.0,0.0,0.557861328125,0.037109375,-0.0704345703125,-0.01141357421875,-0.00933837890625,0.00054931640625,A,1,2026-08-24_23-25-27,2026-08-24
1.0,0.9215449607724804,1.0,1.0,0.0,1.0,0.0,0.0,0.0,1.0,0.0,0.553955078125,0.0367431640625,-0.071044921875,-0.016357421875,-0.00616455078125,0.002410888671875,A,1,2026-08-24_23-25-27,2026-08-24
1.0,0.9287869643934822,1.0,1.0,0.0,1.0,0.0,0.0,0.0,1.0,0.0,0.552734375,0.0389404296875,-0.068359375,-0.01568603515625,-0.00244140625,0.002288818359375,A,1,2026-08-24_23-25-27,2026-08-24
1.0,0.9275799637899819,1.0,1.0,0.0,1.0,0.0,0.0,0.0,1.0,0.0,0.5560302734375,0.0333251953125,-0.06787109375,-0.013641357421875,-0.00274658203125,0.00164794921875,A,1,2026-08-24_23-25-27,2026-08-24
1.0,0.9336149668074833,1.0,1.0,0.0,1.0,0.0,0.0,0.0,1.0,0.0,0.5537109375,0.0408935546875,-0.06298828125,-0.01300048828125,-0.004486083984375,0.001617431640625,A,1,2026-08-24_23-25-27,2026-08-24
1.0,0.9275799637899819,1.0,1.0,0.0,1.0,0.0,0.0,0.0,1.0,0.0,0.549072265625,0.0330810546875,-0.0694580078125,-0.012359619140625,-0.005889892578125,0.00164794921875,A,1,2026-08-24_23-25-27,2026-08-24
1.0,0.9227519613759807,1.0,1.0,0.0,1.0,0.0,0.0,0.0,1.0,0.0,0.553466796875,0.0413818359375,-0.0650634765625,-0.018035888671875,-0.002960205078125,0.000213623046875,A,1,2026-08-24_23-25-27,2026-08-24
1.0,0.9227519613759807,1.0,1.0,0.0,1.0,0.0,0.0,0.0,1.0,0.0,0.554931640625,0.0433349609375,-0.0640869140625,-0.0159912109375,-0.00640869140625,0.002899169921875,A,1,2026-08-24_23-25-27,2026-08-24
1.0,0.9299939649969825,1.0,1.0,0.0,1.0,0.0,0.0,0.0,1.0,0.0,0.554443359375,0.0390625,-0.0667724609375,-0.014404296875,-0.010162353515625,0.002685546875,A,1,2026-08-24_23-25-27,2026-08-24
1.0,0.9287869643934822,1.0,1.0,0.0,1.0,0.0,0.0,0.0,1.0,0.0,0.5552978515625,0.040771484375,-0.067626953125,-0.0093994140625,-0.007598876953125,0.003326416015625,A,1,2026-08-24_23-25-27,2026-08-24
1.0,0.9275799637899819,1.0,1.0,0.0,1.0,0.0,0.0,0.0,1.0,0.0,0.557373046875,0.034912109375,-0.0679931640625,-0.0118408203125,-0.0079345703125,0.0018310546875,A,1,2026-08-24_23-25-27,2026-08-24
1.0,0.9203379601689801,1.0,1.0,0.0,1.0,0.0,0.0,0.0,1.0,0.0,0.554931640625,0.0377197265625,-0.064697265625,-0.013519287109375,-0.010284423828125,0.003082275390625,A,1,2026-08-24_23-25-27,2026-08-24
1.0,0.9263729631864815,1.0,1.0,0.0,1.0,0.0,0.0,0.0,1.0,0.0,0.55322265625,0.037841796875,-0.0673828125,-0.014862060546875,-0.009033203125,0.0054931640625,A,1,2026-08-24_23-25-27,2026-08-24
1.0,0.9299939649969825,1.0,1.0,0.0,1.0,0.0,0.0,0.0,1.0,0.0,0.552490234375,0.0355224609375,-0.0777587890625,-0.008697509765625,-0.008575439453125,0.004486083984375,A,1,2026-08-24_23-25-27,2026-08-24
1.0,0.9336149668074833,1.0,1.0,0.0,1.0,0.0,0.0,0.0,1.0,0.0,0.5565185546875,0.035400390625,-0.0723876953125,-0.01177978515625,-0.00506591796875,0.0013427734375,A,1,2026-08-24_23-25-27,2026-08-24
1.0,0.9336149668074833,1.0,1.0,0.0,1.0,0.0,0.0,0.0,1.0,0.0,0.555419921875,0.0364990234375,-0.068603515625,-0.014251708984375,-0.003265380859375,0.001434326171875,A,1,2026-08-24_23-25-27,2026-08-24
1.0,0.9299939649969825,1.0,1.0,0.0,1.0,0.0,0.0,0.0,1.0,0.0,0.557861328125,0.0418701171875,-0.0689697265625,-0.015472412109375,-0.003997802734375,0.003021240234375,A,1,2026-08-24_23-25-27,2026-08-24
1.0,0.9324079662039831,1.0,1.0,0.0,1.0,0.0,0.0,0.0,1.0,0.0,0.5538330078125,0.0382080078125,-0.072021484375,-0.02081298828125,-0.00848388671875,0.00274658203125,A,1,2026-08-24_23-25-27,2026-08-24
1.0,0.923958961979481,1.0,1.0,0.0,1.0,0.0,0.0,0.0,1.0,0.0,0.5533447265625,0.0460205078125,-0.06005859375,-0.01153564453125,-0.00885009765625,0.0054931640625,A,1,2026-08-24_23-25-27,2026-08-24
1.0,0.923958961979481,1.0,1.0,0.0,1.0,0.0,0.0,0.0,1.0,0.0,0.552978515625,0.033203125,-0.0679931640625,-0.00921630859375,-0.0048828125,0.00384521484375,A,1,2026-08-24_23-25-27,2026-08-24
1.0,0.923958961979481,1.0,1.0,0.0,1.0,0.0,0.0,0.0,1.0,0.0,0.5552978515625,0.0357666015625,-0.068359375,-0.017974853515625,-0.0054931640625,0.00238037109375,A,1,2026-08-24_23-25-27,2026-08-24
1.0,0.9263729631864815,1.0,1.0,0.0,1.0,0.0,0.0,0.0,1.0,0.0,0.553466796875,0.0428466796875,-0.06201171875,-0.014862060546875,-0.00787353515625,0.005218505859375,A,1,2026-08-24_23-25-27,2026-08-24
0.9971045964531307,0.9251659625829813,1.0,1.0,0.0,1.0,0.0,0.0,0.0,1.0,0.0,0.5562744140625,0.0389404296875,-0.0699462890625,-0.011444091796875,-0.012969970703125,0.0086669921875,A,1,2026-08-24_23-25-27,2026-08-24
1.0,0.9263729631864815,1.0,1.0,0.0,1.0,0.0,0.0,0.0,1.0,0.0,0.5506591796875,0.0361328125,-0.0709228515625,-0.008087158203125,-0.0076904296875,0.00372314453125,A,1,2026-08-24_23-25-27,2026-08-24
1.0,0.9227519613759807,1.0,1.0,0.012738853503184714,1.0,0.0,0.0,0.0,1.0,0.0,0.5579833984375,0.0347900390625,-0.0694580078125,-0.0135498046875,-0.0042724609375,0.001495361328125,A,1,2026-08-24_23-25-27,2026-08-24
1.0,0.9299939649969825,1.0,1.0,0.0,1.0,0.0,0.0,0.0,1.0,0.0,0.552978515625,0.0380859375,-0.068603515625,-0.01239013671875,-0.007537841796875,0.002166748046875,A,1,2026-08-24_23-25-27,2026-08-24
1.0,0.9312009656004828,1.0,1.0,0.0,1.0,0.0,0.0,0.0,1.0,0.0,0.554931640625,0.037841796875,-0.0701904296875,-0.014068603515625,-0.0025634765625,0.0045166015625,A,1,2026-08-24_23-25-27,2026-08-24
0.9985522982265653,0.9215449607724804,1.0,1.0,0.0,1.0,0.0,0.0,0.0,1.0,0.0,0.5599365234375,0.0325927734375,-0.0635986328125,-0.01824951171875,-0.008575439453125,0.004119873046875,A,1,2026-08-24_23-25-27,2026-08-24
1.0,0.9275799637899819,1.0,1.0,0.0,1.0,0.0,0.0,0.0,1.0,0.0,0.54833984375,0.0330810546875,-0.0706787109375,-0.0205078125,-0.009796142578125,0.002288818359375,A,1,2026-08-24_23-25-27,2026-08-24
0.9992761491132827,0.9251659625829813,1.0,1.0,0.0,1.0,0.0,0.0,0.0,1.0,0.0,0.5501708984375,0.043212890625,-0.07177734375,-0.01983642578125,-0.00335693359375,0.001434326171875,A,1,2026-08-24_23-25-27,2026-08-24
1.0,0.9251659625829813,1.0,1.0,0.0,1.0,0.0,0.0,0.0,1.0,0.0,0.5538330078125,0.039306640625,-0.072021484375,-0.01470947265625,-0.005584716796875,0.00146484375,A,1,2026-08-24_23-25-27,2026-08-24
0.9963807455664133,0.9251659625829813,1.0,1.0,0.0,1.0,0.0,0.0,0.0,1.0,0.0,0.5494384765625,0.0416259765625,-0.0673828125,-0.012939453125,-0.00482177734375,6.103515625e-05,A,1,2026-08-24_23-25-27,2026-08-24
0.9949330437929786,0.9155099577549789,1.0,1.0,0.0,1.0,0.0,0.0,0.0,1.0,0.0,0.5625,0.04248046875,-0.058349609375,-0.020477294921875,-0.008544921875,0.002288818359375,A,1,2026-08-24_23-25-27,2026-08-24
0.9992761491132827,0.9227519613759807,1.0,1.0,0.0,1.0,0.0,0.0,0.0,1.0,0.0,0.5491943359375,0.0408935546875,-0.06591796875,-0.01220703125,-0.014373779296875,0.0068359375,A,1,2026-08-24_23-25-27,2026-08-24
0.9949330437929786,0.8974049487024743,1.0,1.0,0.0,1.0,0.0,0.0,0.0,1.0,0.0,0.5546875,0.0228271484375,-0.094970703125,-0.023529052734375,-0.0006103515625,0.003570556640625,A,2,2026-08-24_23-25-27,2026-08-24
0.995656894679696,0.8949909474954737,1.0,1.0,0.0,1.0,0.0,0.0,0.0,1.0,0.0,0.54833984375,0.0179443359375,-0.0921630859375,-0.017303466796875,-0.005767822265625,0.00482177734375,A,2,2026-08-24_23-25-27,2026-08-24
0.9942091929062613,0.9022329511164756,1.0,1.0,0.0,1.0,0.0,0.0,0.0,1.0,0.0,0.550048828125,0.01806640625,-0.087890625,-0.021331787109375,-0.009429931640625,0.00238037109375,A,2,2026-08-24_23-25-27,2026-08-24
0.9905899384726746,0.8974049487024743,1.0,1.0,0.0,1.0,0.0,0.0,0.0,1.0,0.0,0.550048828125,0.03076171875,-0.091064453125,-0.0152587890625,-0.015228271484375,0.007110595703125,A,2,2026-08-24_23-25-27,2026-08-24
0.9884183858125226,0.8949909474954737,1.0,1.0,0.0,1.0,0.0,0.0,0.0,1.0,0.0,0.5467529296875,0.0166015625,-0.0992431640625,-0.01153564453125,-0.0062255859375,0.00299072265625,A,2,2026-08-24_23-25-27,2026-08-24
0.993485342019544,0.9010259505129753,1.0,1.0,0.0,1.0,0.0,0.0,0.0,1.0,0.0,0.555908203125,0.0291748046875,-0.0933837890625,-0.02069091796875,-0.0020751953125,-0.00262451171875,A,2,2026-08-24_23-25-27,2026-08-24
0.9949330437929786,0.899818949909475,1.0,1.0,0.0,1.0,0.0,0.0,0.0,1.0,0.0,0.55029296875,0.0323486328125,-0.0926513671875,-0.00994873046875,-0.012176513671875,0.00482177734375,A,2,2026-08-24_23-25-27,2026-08-24
0.9898660875859573,0.8949909474954737,1.0,1.0,0.012738853503184714,1.0,0.0,0.0,0.0,1.0,0.0,0.546142578125,0.020751953125,-0.1051025390625,-0.012054443359375,-0.00396728515625,0.005218505859375,A,2,2026-08-24_23-25-27,2026-08-24
0.9942091929062613,0.9034399517199758,1.0,1.0,0.0,1.0,0.0,0.0,0.0,1.0,0.0,0.551025390625,0.026611328125,-0.0958251953125,-0.01300048828125,-0.00628662109375,0.004974365234375,A,2,2026-08-24_23-25-27,2026-08-24
0.9905899384726746,0.896197948098974,1.0,1.0,0.0,1.0,0.0,0.0,0.0,1.0,0.0,0.54736328125,0.0218505859375,-0.1014404296875,-0.006866455078125,-0.00848388671875,0.004638671875,A,2,2026-08-24_23-25-27,2026-08-24
0.995656894679696,0.9034399517199758,1.0,1.0,0.025477707006369428,1.0,0.0,0.0,0.0,1.0,0.0,0.548583984375,0.0186767578125,-0.1007080078125,-0.013275146484375,-0.00128173828125,0.0029296875,A,2,2026-08-24_23-25-27,2026-08-24
0.9927614911328266,0.896197948098974,1.0,1.0,0.0,1.0,0.0,0.0,0.0,1.0,0.0,0.5482177734375,0.023681640625,-0.094970703125,-0.012481689453125,-0.00555419921875,0.004669189453125,A,2,2026-08-24_23-25-27,2026-08-24
0.9927614911328266,0.8901629450814725,1.0,1.0,0.0,1.0,0.0,0.0,0.0,1.0,0.0,0.5501708984375,0.0152587890625,-0.0997314453125,-0.017486572265625,-0.007110595703125,0.00396728515625,A,2,2026-08-24_23-25-27,2026-08-24
0.9985522982265653,0.8986119493059747,1.0,1.0,0.0,1.0,0.0,0.0,0.0,1.0,0.0,0.55078125,0.028076171875,-0.087890625,-0.018707275390625,-0.009063720703125,0.003387451171875,A,2,2026-08-24_23-25-27,2026-08-24
0.9920376402461093,0.899818949909475,1.0,1.0,0.0,1.0,0.0,0.0,0.0,1.0,0.0,0.549072265625,0.02734375,-0.09326171875,-0.00634765625,-0.011444091796875,0.006927490234375,A,2,2026-08-24_23-25-27,2026-08-24
0.9942091929062613,0.899818949909475,1.0,1.0,0.0,1.0,0.0,0.0,0.0,1.0,0.0,0.5440673828125,0.01806640625,-0.099609375,-0.001373291015625,-0.0048828125,0.001983642578125,A,2,2026-08-24_23-25-27,2026-08-24
0.9884183858125226,0.8853349426674714,1.0,1.0,0.03821656050955414,1.0,0.0,0.0,0.0,1.0,0.0,0.5552978515625,0.0186767578125,-0.0933837890625,-0.018829345703125,-0.003997802734375,-0.0006103515625,A,2,2026-08-24_23-25-27,2026-08-24
0.9876945349258053,0.896197948098974,1.0,1.0,0.0,1.0,0.0,0.0,0.0,1.0,0.0,0.5518798828125,0.028076171875,-0.0899658203125,-0.02081298828125,-0.010589599609375,0.006378173828125,A,2,2026-08-24_23-25-27,2026-08-24
0.9949330437929786,0.9034399517199758,1.0,1.0,0.0,1.0,0.0,0.0,0.0,1.0,0.0,0.55078125,0.023681640625,-0.1031494140625,-0.017791748046875,-0.010650634765625,0.009033203125,A,2,2026-08-24_23-25-27,2026-08-24
0.9905899384726746,0.8925769462884732,1.0,1.0,0.0,1.0,0.0,0.0,0.0,1.0,0.0,0.5477294921875,0.02197265625,-0.100830078125,-0.0152587890625,-0.0032958984375,0.00164794921875,A,2,2026-08-24_23-25-27,2026-08-24
0.9927614911328266,0.896197948098974,1.0,1.0,0.012738853503184714,1.0,0.0,0.0,0.0,1.0,0.0,0.5523681640625,0.0247802734375,-0.095458984375,-0.009735107421875,-0.000518798828125,0.001861572265625,A,2,2026-08-24_23-25-27,2026-08-24
0.991313789359392,0.896197948098974,1.0,1.0,0.0,1.0,0.0,0.0,0.0,1.0,0.0,0.55078125,0.02490234375,-0.09375,-0.011474609375,-0.007598876953125,0.0050048828125,A,2,2026-08-24_23-25-27,2026-08-24
0.9949330437929786,0.899818949909475,1.0,1.0,0.0,1.0,0.0,0.0,0.0,1.0,0.0,0.5455322265625,0.0201416015625,-0.098388671875,-0.012603759765625,-0.0072021484375,0.005523681640625,A,2,2026-08-24_23-25-27,2026-08-24
0.9898660875859573,0.8949909474954737,1.0,1.0,0.012738853503184714,1.0,0.0,0.0,0.0,1.0,0.0,0.551513671875,0.0311279296875,-0.089599609375,-0.01123046875,-0.005462646484375,0.00653076171875,A,2,2026-08-24_23-25-27,2026-08-24
0.993485342019544,0.896197948098974,1.0,1.0,0.0,1.0,0.0,0.0,0.0,1.0,0.0,0.5469970703125,0.0169677734375,-0.0999755859375,-0.00848388671875,-0.003662109375,0.002044677734375,A,2,2026-08-24_23-25-27,2026-08-24
0.9920376402461093,0.8986119493059747,1.0,1.0,0.0,1.0,0.0,0.0,0.0,1.0,0.0,0.54931640625,0.0198974609375,-0.099609375,-0.021026611328125,0.0009765625,0.000274658203125,A,2,2026-08-24_23-25-27,2026-08-24
0.993485342019544,0.899818949909475,1.0,1.0,0.012738853503184714,1.0,0.0,0.0,0.0,1.0,0.0,0.552001953125,0.0250244140625,-0.098388671875,-0.0150146484375,-0.008819580078125,0.004730224609375,A,2,2026-08-24_23-25-27,2026-08-24
0.9927614911328266,0.8949909474954737,1.0,1.0,0.0,1.0,0.0,0.0,0.0,1.0,0.0,0.5479736328125,0.0211181640625,-0.0955810546875,-0.01959228515625,-0.008758544921875,0.005096435546875,A,2,2026-08-24_23-25-27,2026-08-24
0.993485342019544,0.8949909474954737,1.0,1.0,0.025477707006369428,1.0,0.0,0.0,0.0,1.0,0.0,0.547119140625,0.0283203125,-0.09521484375,-0.011474609375,-0.006317138671875,0.004058837890625,A,2,2026-08-24_23-25-27,2026-08-24
0.9884183858125226,0.8949909474954737,1.0,1.0,0.0,1.0,0.0,0.0,0.0,1.0,0.0,0.548828125,0.0191650390625,-0.1031494140625,-0.007843017578125,-0.006011962890625,0.00140380859375,A,2,2026-08-24_23-25-27,2026-08-24
0.9920376402461093,0.899818949909475,1.0,1.0,0.012738853503184714,1.0,0.0,0.0,0.0,1.0,0.0,0.5521240234375,0.02294921875,-0.0992431640625,-0.0205078125,-0.006561279296875,0.00042724609375,A,2,2026-08-24_23-25-27,2026-08-24
0.9949330437929786,0.899818949909475,1.0,1.0,0.0,1.0,0.0,0.0,0.0,1.0,0.0,0.5477294921875,0.025146484375,-0.0963134765625,-0.0184326171875,-0.009613037109375,0.005950927734375,A,2,2026-08-24_23-25-27,2026-08-24
0.9855229822656533,0.8877489438744719,1.0,1.0,0.0,1.0,0.0,0.0,0.0,1.0,0.0,0.5487060546875,0.0277099609375,-0.0921630859375,-0.017547607421875,-0.00732421875,0.006988525390625,A,2,2026-08-24_23-25-27,2026-08-24
0.9884183858125226,0.8913699456849729,1.0,1.0,0.0,1.0,0.0,0.0,0.0,1.0,0.0,0.5477294921875,0.0205078125,-0.0947265625,-0.00469970703125,-0.0074462890625,0.003814697265625,A,2,2026-08-24_23-25-27,2026-08-24
0.993485342019544,0.8913699456849729,1.0,1.0,0.0,1.0,0.0,0.0,0.0,1.0,0.0,0.5496826171875,0.0167236328125,-0.0909423828125,-0.01116943359375,-0.001617431640625,-0.00189208984375,A,2,2026-08-24_23-25-27,2026-08-24
0.9949330437929786,0.8974049487024743,1.0,1.0,0.0,1.0,0.0,0.0,0.0,1.0,0.0,0.5506591796875,0.0174560546875,-0.089111328125,-0.00518798828125,-0.003662109375,0.000152587890625,A,2,2026-08-24_23-25-27,2026-08-24
0.9927614911328266,0.8974049487024743,1.0,1.0,0.0,1.0,0.0,0.0,0.0,1.0,0.0,0.5550537109375,0.0234375,-0.088134765625,-0.005126953125,-0.010711669921875,0.00372314453125,A,2,2026-08-24_23-25-27,2026-08-24
0.991313789359392,0.9022329511164756,1.0,1.0,0.0,1.0,0.0,0.0,0.0,1.0,0.0,0.546875,0.02685546875,-0.092529296875,-0.00286865234375,-0.0111083984375,0.00604248046875,A,2,2026-08-24_23-25-27,2026-08-24
0.9898660875859573,0.8949909474954737,1.0,1.0,0.0,1.0,0.0,0.0,0.0,1.0,0.0,0.5478515625,0.0228271484375,-0.09716796875,-0.006439208984375,-0.008758544921875,0.00347900390625,A,2,2026-08-24_23-25-27,2026-08-24
0.9949330437929786,0.8901629450814725,1.0,1.0,0.0,1.0,0.0,0.0,0.0,1.0,0.0,0.550537109375,0.0283203125,-0.0958251953125,-0.01318359375,-0.0062255859375,0.004638671875,A,2,2026-08-24_23-25-27,2026-08-24
1.0,0.9155099577549789,1.0,1.0,0.0,1.0,0.0,0.0,0.0,1.0,0.0,0.54833984375,-0.002685546875,-0.103271484375,-0.003387451171875,-0.0089111328125,0.004364013671875,A,3,2026-08-24_23-25-27,2026-08-24
1.0,0.9191309595654797,1.0,1.0,0.0,1.0,0.0,0.0,0.0,1.0,0.0,0.549560546875,0.002197265625,-0.1002197265625,-0.01873779296875,-0.00311279296875,0.00439453125,A,3,2026-08-24_23-25-27,2026-08-24
1.0,0.9191309595654797,1.0,1.0,0.0,1.0,0.0,0.0,0.0,1.0,0.0,0.5526123046875,0.0045166015625,-0.0908203125,-0.02081298828125,-0.00994873046875,0.008697509765625,A,3,2026-08-24_23-25-27,2026-08-24
1.0,0.9143029571514786,1.0,1.0,0.0,1.0,0.0,0.0,0.0,1.0,0.0,0.5477294921875,0.0035400390625,-0.09912109375,-0.015106201171875,-0.009918212890625,0.009521484375,A,3,2026-08-24_23-25-27,2026-08-24
1.0,0.9155099577549789,1.0,1.0,0.0,1.0,0.0,0.0,0.0,1.0,0.0,0.5516357421875,0.0029296875,-0.09912109375,-0.012786865234375,-0.00665283203125,0.00482177734375,A,3,2026-08-24_23-25-27,2026-08-24
1.0,0.9203379601689801,1.0,1.0,0.012738853503184714,1.0,0.0,0.0,0.0,1.0,0.0,0.5474853515625,-0.0009765625,-0.0994873046875,-0.011016845703125,-0.008758544921875,0.005767822265625,A,3,2026-08-24_23-25-27,2026-08-24
1.0,0.9155099577549789,1.0,1.0,0.0,1.0,0.0,0.0,0.0,1.0,0.0,0.547119140625,0.0003662109375,-0.10009765625,-0.015777587890625,-0.010498046875,0.006683349609375,A,3,2026-08-24_23-25-27,2026-08-24
1.0,0.9167169583584792,1.0,1.0,0.0,1.0,0.0,0.0,0.0,1.0,0.0,0.5511474609375,-0.00390625,-0.10009765625,-0.01312255859375,-0.0093994140625,0.011322021484375,A,3,2026-08-24_23-25-27,2026-08-24
1.0,0.9167169583584792,1.0,1.0,0.0,1.0,0.0,0.0,0.0,1.0,0.0,0.5479736328125,-0.00927734375,-0.107177734375,-0.009765625,-0.00421142578125,0.005615234375,A,3,2026-08-24_23-25-27,2026-08-24
1.0,0.9167169583584792,1.0,1.0,0.0,1.0,0.0,0.0,0.0,1.0,0.0,0.5516357421875,-0.009033203125,-0.09912109375,-0.016143798828125,-0.004180908203125,0.00091552734375,A,3,2026-08-24_23-25-27,2026-08-24
1.0,0.9143029571514786,1.0,1.0,0.0,1.0,0.0,0.0,0.0,1.0,0.0,0.5462646484375,-0.0040283203125,-0.103759765625,-0.01727294921875,-0.00518798828125,0.003204345703125,A,3,2026-08-24_23-25-27,2026-08-24
1.0,0.9215449607724804,1.0,1.0,0.012738853503184714,1.0,0.0,0.0,0.0,1.0,0.0,0.5501708984375,0.0028076171875,-0.0938720703125,-0.02056884765625,-0.00555419921875,0.003662109375,A,3,2026-08-24_23-25-27,2026-08-24
1.0,0.9155099577549789,1.0,1.0,0.0,1.0,0.0,0.0,0.0,1.0,0.0,0.550048828125,0.00732421875,-0.0947265625,-0.01373291015625,-0.0113525390625,0.005706787109375,A,3,2026-08-24_23-25-27,2026-08-24
1.0,0.9118889559444779,1.0,1.0,0.03821656050955414,1.0,0.0,0.0,0.0,1.0,0.0,0.5445556640625,-0.002685546875,-0.1002197265625,-0.008544921875,-0.00946044921875,0.0048828125,A,3,2026-08-24_23-25-27,2026-08-24
1.0,0.9179239589619795,1.0,1.0,0.0,1.0,0.0,0.0,0.0,1.0,0.0,0.5487060546875,-0.001708984375,-0.1036376953125,-0.016204833984375,-0.00482177734375,0.001251220703125,A,3,2026-08-24_23-25-27,2026-08-24
1.0,0.9203379601689801,1.0,1.0,0.0,1.0,0.0,0.0,0.0,1.0,0.0,0.5535888671875,0.0029296875,-0.0950927734375,-0.01904296875,-0.00579833984375,0.004974365234375,A,3,2026-08-24_23-25-27,2026-08-24
1.0,0.9143029571514786,1.0,1.0,0.0,1.0,0.0,0.0,0.0,1.0,0.0,0.554931640625,0.0020751953125,-0.0977783203125,-0.015411376953125,-0.011962890625,0.009002685546875,A,3,2026-08-24_23-25-27,2026-08-24
1.0,0.9094749547374774,1.0,1.0,0.012738853503184714,1.0,0.0,0.0,0.0,1.0,0.0,0.5484619140625,-0.0126953125,-0.1031494140625,-0.017120361328125,-0.01275634765625,0.007904052734375,A,3,2026-08-24_23-25-27,2026-08-24
1.0,0.9155099577549789,1.0,1.0,0.0,1.0,0.0,0.0,0.0,1.0,0.0,0.544189453125,0.0,-0.1033935546875,-0.017791748046875,-0.005340576171875,0.003875732421875,A,3,2026-08-24_23-25-27,2026-08-24
1.0,0.9155099577549789,1.0,1.0,0.025477707006369428,1.0,0.0,0.0,0.0,1.0,0.0,0.551025390625,-0.005859375,-0.1046142578125,-0.01904296875,0.0015869140625,0.001007080078125,A,3,2026-08-24_23-25-27,2026-08-24
1.0,0.9167169583584792,1.0,1.0,0.0,1.0,0.0,0.0,0.0,1.0,0.0,0.55322265625,0.0048828125,-0.0950927734375,-0.01446533203125,-0.005889892578125,0.00323486328125,A,3,2026-08-24_23-25-27,2026-08-24
1.0,0.9143029571514786,1.0,1.0,0.03821656050955414,1.0,0.0,0.0,0.0,1.0,0.0,0.5489501953125,-0.0013427734375,-0.1009521484375,-0.00946044921875,-0.012725830078125,0.0078125,A,3,2026-08-24_23-25-27,2026-08-24
1.0,0.9155099577549789,1.0,1.0,0.0,1.0,0.0,0.0,0.0,1.0,0.0,0.5435791015625,-0.00341796875,-0.1021728515625,-0.01226806640625,-0.006744384765625,0.0069580078125,A,3,2026-08-24_23-25-27,2026-08-24
1.0,0.9058539529269765,1.0,1.0,0.0,1.0,0.0,0.0,0.0,1.0,0.0,0.5423583984375,-0.0067138671875,-0.10693359375,-0.016021728515625,0.00439453125,-9.1552734375e-05,A,3,2026-08-24_23-25-27,2026-08-24
1.0,0.9082679541339771,1.0,1.0,0.025477707006369428,1.0,0.0,0.0,0.0,1.0,0.0,0.5533447265625,0.007080078125,-0.0909423828125,-0.015350341796875,0.00030517578125,0.002655029296875,A,3,2026-08-24_23-25-27,2026-08-24
1.0,0.9106819553409776,1.0,1.0,0.0,1.0,0.0,0.0,0.0,1.0,0.0,0.5533447265625,-0.005615234375,-0.0968017578125,-0.01318359375,-0.011962890625,0.004974365234375,A,3,2026-08-24_23-25-27,2026-08-24
1.0,0.9094749547374774,1.0,1.0,0.025477707006369428,1.0,0.0,0.0,0.0,1.0,0.0,0.546142578125,-0.000244140625,-0.0947265625,-0.015472412109375,-0.0146484375,0.00732421875,A,3,2026-08-24_23-25-27,2026-08-24
1.0,0.9118889559444779,1.0,1.0,0.0,1.0,0.0,0.0,0.0,1.0,0.0,0.5465087890625,-0.0045166015625,-0.1011962890625,-0.009735107421875,-0.00994873046875,0.006317138671875,A,3,2026-08-24_23-25-27,2026-08-24
1.0,0.9070609535304768,1.0,1.0,0.0,1.0,0.0,0.0,0.0,1.0,0.0,0.5450439453125,-0.010009765625,-0.10498046875,-0.01849365234375,0.00018310546875,-0.001190185546875,A,3,2026-08-24_23-25-27,2026-08-24
1.0,0.9046469523234761,1.0,1.0,0.0,1.0,0.0,0.0,0.0,1.0,0.0,0.5560302734375,0.00927734375,-0.0914306640625,-0.023223876953125,-0.005767822265625,0.0020751953125,A,3,2026-08-24_23-25-27,2026-08-24
1.0,0.9143029571514786,1.0,1.0,0.0,1.0,0.0,0.0,0.0,1.0,0.0,0.5477294921875,-0.0001220703125,-0.097412109375,-0.016937255859375,-0.01495361328125,0.011016845703125,A,3,2026-08-24_23-25-27,2026-08-24
0.997828447339848,0.9143029571514786,1.0,1.0,0.025477707006369428,1.0,0.0,0.0,0.0,1.0,0.0,0.546142578125,-0.0048828125,-0.1053466796875,-0.018035888671875,-0.012481689453125,0.0054931640625,A,3,2026-08-24_23-25-27,2026-08-24
1.0,0.9118889559444779,1.0,1.0,0.0,1.0,0.0,0.0,0.0,1.0,0.0,0.5460205078125,-0.0023193359375,-0.10205078125,-0.01983642578125,-0.001556396484375,0.001983642578125,A,3,2026-08-24_23-25-27,2026-08-24
1.0,0.9094749547374774,1.0,1.0,0.06369426751592357,1.0,0.0,0.0,0.0,1.0,0.0,0.546630859375,-0.0001220703125,-0.1007080078125,-0.0186767578125,0.00567626953125,0.00189208984375,A,3,2026-08-24_23-25-27,2026-08-24
1.0,0.9167169583584792,1.0,1.0,0.025477707006369428,1.0,0.0,0.0,0.0,1.0,0.0,0.554443359375,0.007568359375,-0.0970458984375,-0.0115966796875,0.00018310546875,0.007080078125,A,3,2026-08-24_23-25-27,2026-08-24
1.0,0.9106819553409776,1.0,1.0,0.03821656050955414,1.0,0.0,0.0,0.0,1.0,0.0,0.5516357421875,-0.010009765625,-0.0950927734375,-0.009979248046875,-0.012847900390625,0.008819580078125,A,3,2026-08-24_23-25-27,2026-08-24
1.0,0.9118889559444779,1.0,1.0,0.0,1.0,0.0,0.0,0.0,1.0,0.0,0.5467529296875,-0.0091552734375,-0.1005859375,-0.020721435546875,-0.0111083984375,0.005035400390625,A,3,2026-08-24_23-25-27,2026-08-24
1.0,0.9106819553409776,1.0,1.0,0.0,1.0,0.0,0.0,0.0,1.0,0.0,0.5494384765625,-0.00390625,-0.102294921875,-0.0194091796875,0.000244140625,0.004486083984375,A,3,2026-08-24_23-25-27,2026-08-24
1.0,0.9094749547374774,1.0,1.0,0.0,1.0,0.0,0.0,0.0,1.0,0.0,0.5484619140625,-0.006103515625,-0.1007080078125,-0.013946533203125,0.005523681640625,-0.002685546875,A,3,2026-08-24_23-25-27,2026-08-24
1.0,0.9155099577549789,1.0,1.0,0.0,1.0,0.0,0.0,0.0,1.0,0.0,0.558837890625,0.000732421875,-0.087646484375,-0.00146484375,-0.00531005859375,-0.00079345703125,A,3,2026-08-24_23-25-27,2026-08-24
1.0,0.9408569704284853,1.0,1.0,0.0,1.0,0.0,0.0,0.0,1.0,0.0,0.5465087890625,-0.0247802734375,-0.1119384765625,-0.00860595703125,-0.011962890625,0.007843017578125,A,4,2026-08-24_23-25-27,2026-08-24
1.0,0.936028968014484,1.0,1.0,0.012738853503184714,1.0,0.0,0.0,0.0,1.0,0.0,0.5447998046875,-0.0194091796875,-0.113525390625,-0.010467529296875,-0.008819580078125,0.007354736328125,A,4,2026-08-24_23-25-27,2026-08-24
1.0,0.9408569704284853,1.0,1.0,0.0,1.0,0.0,0.0,0.0,1.0,0.0,0.5439453125,-0.02734375,-0.1163330078125,-0.014556884765625,-0.00506591796875,0.002655029296875,A,4,2026-08-24_23-25-27,2026-08-24
1.0,0.9408569704284853,1.0,1.0,0.0,1.0,0.0,0.0,0.0,1.0,0.0,0.54150390625,-0.0164794921875,-0.114990234375,-0.0123291015625,-0.00323486328125,0.00054931640625,A,4,2026-08-24_23-25-27,2026-08-24
1.0,0.9348219674109837,1.0,1.0,0.0,1.0,0.0,0.0,0.0,1.0,0.0,0.5440673828125,-0.0252685546875,-0.1160888671875,-0.007904052734375,-0.004425048828125,0.001556396484375,A,4,2026-08-24_23-25-27,2026-08-24
1.0,0.9336149668074833,1.0,1.0,0.0,1.0,0.0,0.0,0.0,1.0,0.0,0.5443115234375,-0.02099609375,-0.111083984375,-0.01416015625,-0.009796142578125,0.003692626953125,A,4,2026-08-24_23-25-27,2026-08-24
1.0,0.9372359686179843,1.0,1.0,0.0,1.0,0.0,0.0,0.0,1.0,0.0,0.5450439453125,-0.021728515625,-0.11669921875,-0.014129638671875,-0.015533447265625,0.010162353515625,A,4,2026-08-24_23-25-27,2026-08-24
1.0,0.9336149668074833,1.0,1.0,0.0,1.0,0.0,0.0,0.0,1.0,0.0,0.540771484375,-0.0198974609375,-0.1177978515625,-0.022308349609375,-0.00518798828125,0.00665283203125,A,4,2026-08-24_23-25-27,2026-08-24
1.0,0.9432709716354858,1.0,1.0,0.0,1.0,0.0,0.0,0.0,1.0,0.0,0.546630859375,-0.022705078125,-0.119140625,-0.012542724609375,-0.00396728515625,0.00146484375,A,4,2026-08-24_23-25-27,2026-08-24
1.0,0.9324079662039831,1.0,1.0,0.07643312101910828,1.0,0.0,0.0,0.0,1.0,0.0,0.550537109375,-0.020751953125,-0.1142578125,-0.007965087890625,-0.0072021484375,0.000579833984375,A,4,2026-08-24_23-25-27,2026-08-24
1.0,0.9432709716354858,1.0,1.0,0.0,1.0,0.0,0.0,0.0,1.0,0.0,0.55029296875,-0.017822265625,-0.1085205078125,-0.00128173828125,-0.0157470703125,0.00885009765625,A,4,2026-08-24_23-25-27,2026-08-24
1.0,0.9408569704284853,1.0,1.0,0.0,1.0,0.0,0.0,0.0,1.0,0.0,0.5364990234375,-0.0343017578125,-0.1253662109375,0.00115966796875,-0.012481689453125,0.007781982421875,A,4,2026-08-24_23-25-27,2026-08-24
1.0,0.9396499698249849,1.0,1.0,0.025477707006369428,1.0,0.0,0.0,0.0,1.0,0.0,0.5462646484375,-0.0318603515625,-0.1168212890625,-0.01251220703125,-0.001800537109375,-0.001983642578125,A,4,2026-08-24_23-25-27,2026-08-24
1.0,0.9372359686179843,1.0,1.0,0.0,1.0,0.0,0.0,0.0,1.0,0.0,0.54150390625,-0.0306396484375,-0.1162109375,-0.008056640625,-0.00189208984375,-0.000946044921875,A,4,2026-08-24_23-25-27,2026-08-24
1.0,0.9312009656004828,1.0,1.0,0.0,1.0,0.0,0.0,0.0,1.0,0.0,0.5401611328125,-0.0184326171875,-0.115966796875,-0.019866943359375,-0.0009765625,-0.00054931640625,A,4,2026-08-24_23-25-27,2026-08-24
1.0,0.9336149668074833,1.0,1.0,0.0,1.0,0.0,0.0,0.0,1.0,0.0,0.5491943359375,-0.01171875,-0.1051025390625,-0.016845703125,-0.01641845703125,0.010711669921875,A,4,2026-08-24_23-25-27,2026-08-24
1.0,0.9589619794809897,1.0,1.0,0.0,1.0,0.0,0.0,0.0,1.0,0.0,0.5386962890625,-0.0186767578125,-0.1251220703125,-0.016693115234375,-0.020172119140625,0.010955810546875,A,4,2026-08-24_23-25-27,2026-08-24
1.0,0.936028968014484,1.0,1.0,0.0,1.0,0.0,0.0,0.0,1.0,0.0,0.5399169921875,-0.0203857421875,-0.1187744140625,-0.00738525390625,-0.0042724609375,0.005645751953125,A,4,2026-08-24_23-25-27,2026-08-24
1.0,0.9396499698249849,1.0,1.0,0.0,1.0,0.0,0.0,0.0,1.0,0.0,0.549072265625,-0.025146484375,-0.118408203125,-0.00299072265625,-0.0052490234375,0.001220703125,A,4,2026-08-24_23-25-27,2026-08-24
1.0,0.9420639710319855,1.0,1.0,0.0,1.0,0.0,0.0,0.0,1.0,0.0,0.5498046875,-0.021240234375,-0.11376953125,-0.003753662109375,-0.015838623046875,0.003936767578125,A,4,2026-08-24_23-25-27,2026-08-24
1.0,0.936028968014484,1.0,1.0,0.0,1.0,0.0,0.0,0.0,1.0,0.0,0.5439453125,-0.029296875,-0.117431640625,-0.0081787109375,-0.016387939453125,0.009307861328125,A,4,2026-08-24_23-25-27,2026-08-24
1.0,0.9312009656004828,1.0,1.0,0.0,1.0,0.0,0.0,0.0,1.0,0.0,0.54345703125,-0.032958984375,-0.1259765625,-0.01849365234375,-0.009368896484375,0.006622314453125,A,4,2026-08-24_23-25-27,2026-08-24
1.0,0.9299939649969825,1.0,1.0,0.0,1.0,0.0,0.0,0.0,1.0,0.0,0.5452880859375,-0.026123046875,-0.1204833984375,-0.0272216796875,-0.003021240234375,-0.0001220703125,A,4,2026-08-24_23-25-27,2026-08-24
1.0,0.9384429692214846,1.0,1.0,0.0,1.0,0.0,0.0,0.0,1.0,0.0,0.5465087890625,-0.0169677734375,-0.1116943359375,-0.01483154296875,-0.00506591796875,0.005157470703125,A,4,2026-08-24_23-25-27,2026-08-24
1.0,0.9312009656004828,1.0,1.0,0.0,1.0,0.0,0.0,0.0,1.0,0.0,0.5450439453125,-0.0264892578125,-0.118896484375,-0.009796142578125,-0.010162353515625,0.00469970703125,A,4,2026-08-24_23-25-27,2026-08-24
1.0,0.9396499698249849,1.0,1.0,0.025477707006369428,1.0,0.0,0.0,0.0,1.0,0.0,0.546142578125,-0.0238037109375,-0.11669921875,-0.01324462890625,-0.0169677734375,0.005462646484375,A,4,2026-08-24_23-25-27,2026-08-24
1.0,0.9336149668074833,1.0,1.0,0.0,1.0,0.0,0.0,0.0,1.0,0.0,0.541015625,-0.026611328125,-0.1214599609375,-0.0216064453125,-0.01446533203125,0.00518798828125,A,4,2026-08-24_23-25-27,2026-08-24
1.0,0.9299939649969825,1.0,1.0,0.0,1.0,0.0,0.0,0.0,1.0,0.0,0.5423583984375,-0.0281982421875,-0.1134033203125,-0.021942138671875,-0.00994873046875,0.00048828125,A,4,2026-08-24_23-25-27,2026-08-24
1.0,0.9299939649969825,1.0,1.0,0.0,1.0,0.0,0.0,0.0,1.0,0.0,0.5489501953125,-0.017333984375,-0.1162109375,-0.017578125,-0.017822265625,0.00201416015625,A,4,2026-08-24_23-25-27,2026-08-24
1.0,0.9312009656004828,1.0,1.0,0.025477707006369428,1.0,0.0,0.0,0.0,1.0,0.0,0.538818359375,-0.0130615234375,-0.1270751953125,-0.0152587890625,-0.017059326171875,0.007293701171875,A,4,2026-08-24_23-25-27,2026-08-24
1.0,0.9408569704284853,1.0,1.0,0.050955414012738856,1.0,0.0,0.0,0.0,1.0,0.0,0.5386962890625,-0.017578125,-0.1248779296875,-0.014617919921875,-0.01177978515625,0.0084228515625,A,4,2026-08-24_23-25-27,2026-08-24
1.0,0.9348219674109837,1.0,1.0,0.0,1.0,0.0,0.0,0.0,1.0,0.0,0.5455322265625,-0.0244140625,-0.1217041015625,-0.008758544921875,-0.0150146484375,0.010894775390625,A,4,2026-08-24_23-25-27,2026-08-24
1.0,0.9348219674109837,1.0,1.0,0.0,1.0,0.0,0.0,0.0,1.0,0.0,0.53857421875,-0.032470703125,-0.125732421875,-0.01116943359375,-0.00732421875,0.00738525390625,A,4,2026-08-24_23-25-27,2026-08-24
1.0,0.9384429692214846,1.0,1.0,0.012738853503184714,1.0,0.0,0.0,0.0,1.0,0.0,0.5509033203125,-0.0269775390625,-0.118896484375,-0.010650634765625,-0.005828857421875,0.005828857421875,A,4,2026-08-24_23-25-27,2026-08-24
1.0,0.9348219674109837,1.0,1.0,0.012738853503184714,1.0,0.0,0.0,0.0,1.0,0.0,0.5433349609375,-0.0308837890625,-0.1182861328125,-0.004852294921875,-0.011383056640625,0.007232666015625,A,4,2026-08-24_23-25-27,2026-08-24
0.9949330437929786,0.9312009656004828,1.0,1.0,0.012738853503184714,1.0,0.0,0.0,0.0,1.0,0.0,0.5394287109375,-0.0352783203125,-0.11669921875,-0.015167236328125,-0.007232666015625,0.003936767578125,A,4,2026-08-24_23-25-27,2026-08-24
1.0,0.9299939649969825,1.0,1.0,0.0,1.0,0.0,0.0,0.0,1.0,0.0,0.5440673828125,-0.0281982421875,-0.1112060546875,-0.014251708984375,-0.0047607421875,0.002777099609375,A,4,2026-08-24_23-25-27,2026-08-24
1.0,0.9324079662039831,1.0,1.0,0.0,1.0,0.0,0.0,0.0,1.0,0.0,0.5428466796875,-0.0238037109375,-0.11474609375,-0.0096435546875,-0.005645751953125,0.001708984375,A,4,2026-08-24_23-25-27,2026-08-24
1.0,0.9408569704284853,1.0,1.0,0.0,1.0,0.0,0.0,0.0,1.0,0.0,0.5478515625,-0.0230712890625,-0.1180419921875,-0.00799560546875,-0.009490966796875,-0.00030517578125,A,4,2026-08-24_23-25-27,2026-08-24
1.0,0.9348219674109837,1.0,1.0,0.012738853503184714,1.0,0.0,0.0,0.0,1.0,0.0,0.5419921875,-0.0262451171875,-0.11767578125,-0.011962890625,-0.01007080078125,-0.0001220703125,A,4,2026-08-24_23-25-27,2026-08-24
0.05030763662685487,0.0,0.0,0.0,1.0,1.0,1.0,1.0,1.0,1.0,0.0,0.5599365234375,0.1795654296875,-0.1326904296875,-0.005584716796875,-0.0108642578125,0.04400634765625,B,0,2026-08-24_23-25-27,2026-08-24
0.06912775968150561,0.0,0.0,0.0,1.0,1.0,1.0,1.0,1.0,1.0,0.0,0.5299072265625,0.14501953125,-0.1385498046875,-0.025787353515625,0.024658203125,0.03948974609375,B,0,2026-08-24_23-25-27,2026-08-24
0.04958378574013753,0.0,0.0,0.0,1.0,1.0,1.0,1.0,1.0,1.0,0.0,0.514892578125,0.1427001953125,-0.12744140625,-0.056488037109375,0.03973388671875,0.0352783203125,B,0,2026-08-24_23-25-27,2026-08-24
0.043069127759681504,0.0,0.0,0.0,1.0,1.0,1.0,1.0,1.0,1.0,0.0,0.510986328125,0.138916015625,-0.112548828125,-0.057525634765625,0.0260009765625,0.0325927734375,B,0,2026-08-24_23-25-27,2026-08-24
0.048859934853420196,0.0,0.0,0.0,1.0,1.0,1.0,1.0,1.0,1.0,0.0,0.504638671875,0.1318359375,-0.0911865234375,-0.0389404296875,0.0162353515625,0.016265869140625,B,0,2026-08-24_23-25-27,2026-08-24
0.04741223307998552,0.0,0.0,0.0,1.0,1.0,1.0,1.0,1.0,1.0,0.0,0.5042724609375,0.1314697265625,-0.0771484375,-0.028778076171875,0.01519775390625,-0.003387451171875,B,0,2026-08-24_23-25-27,2026-08-24
0.05030763662685487,0.0,0.0,0.0,1.0,1.0,1.0,1.0,1.0,1.0,0.0,0.5130615234375,0.1392822265625,-0.073486328125,-0.03082275390625,0.00146484375,-0.017333984375,B,0,2026-08-24_23-25-27,2026-08-24
0.04741223307998552,0.0,0.0,0.0,1.0,1.0,1.0,1.0,1.0,1.0,0.0,0.518798828125,0.1551513671875,-0.0657958984375,-0.041351318359375,-0.019805908203125,-0.0220947265625,B,0,2026-08-24_23-25-27,2026-08-24
0.04741223307998552,0.0,0.0,0.0,1.0,1.0,1.0,1.0,1.0,1.0,0.0,0.528564453125,0.1627197265625,-0.06494140625,-0.037811279296875,-0.028717041015625,-0.013946533203125,B,0,2026-08-24_23-25-27,2026-08-24
0.048859934853420196,0.0,0.0,0.0,1.0,1.0,1.0,1.0,1.0,1.0,0.0,0.5302734375,0.1697998046875,-0.0782470703125,-0.01409912109375,-0.04046630859375,-0.001617431640625,B,0,2026-08-24_23-25-27,2026-08-24
0.04741223307998552,0.0,0.0,0.0,1.0,1.0,1.0,1.0,1.0,1.0,0.0,0.5225830078125,0.166259765625,-0.092529296875,0.004913330078125,-0.0350341796875,0.004241943359375,B,0,2026-08-24_23-25-27,2026-08-24
0.048859934853420196,0.0,0.0,0.0,1.0,1.0,1.0,1.0,1.0,1.0,0.0,0.5228271484375,0.159423828125,-0.1107177734375,-0.00665283203125,-0.021759033203125,-6.103515625e-05,B,0,2026-08-24_23-25-27,2026-08-24
0.048859934853420196,0.0,0.0,0.0,1.0,1.0,1.0,1.0,1.0,1.0,0.0,0.529541015625,0.1634521484375,-0.11376953125,-0.020843505859375,-0.012725830078125,0.000946044921875,B,0,2026-08-24_23-25-27,2026-08-24
0.048859934853420196,0.0,0.0,0.0,1.0,1.0,1.0,1.0,1.0,1.0,0.0,0.5281982421875,0.16455078125,-0.1160888671875,-0.01702880859375,-0.01416015625,0.0074462890625,B,0,2026-08-24_23-25-27,2026-08-24
0.04741223307998552,0.0,0.0,0.0,1.0,1.0,1.0,1.0,1.0,1.0,0.0,0.528076171875,0.1640625,-0.117919921875,-0.008148193359375,-0.0111083984375,0.0076904296875,B,0,2026-08-24_23-25-27,2026-08-24
0.04668838219326819,0.0,0.0,0.0,1.0,1.0,1.0,1.0,1.0,1.0,0.0,0.5262451171875,0.1595458984375,-0.11376953125,-0.0159912109375,0.003082275390625,0.00079345703125,B,0,2026-08-24_23-25-27,2026-08-24
0.06912775968150561,0.0,0.0,0.0,1.0,1.0,1.0,1.0,1.0,1.0,0.0,0.5308837890625,0.16064453125,-0.1126708984375,-0.024444580078125,0.012176513671875,0.0015869140625,B,0,2026-08-24_23-25-27,2026-08-24
0.05175533840028954,0.0,0.0,0.0,1.0,1.0,1.0,1.0,1.0,1.0,0.0,0.5296630859375,0.1607666015625,-0.0985107421875,-0.020263671875,0.007659912109375,0.004852294921875,B,0,2026-08-24_23-25-27,2026-08-24
0.04813608396670286,0.0,0.0,0.0,1.0,1.0,1.0,1.0,1.0,1.0,0.0,0.5235595703125,0.165283203125,-0.097900390625,-0.02020263671875,0.00775146484375,0.001251220703125,B,0,2026-08-24_23-25-27,2026-08-24
0.04958378574013753,0.0,0.0,0.0,1.0,1.0,1.0,1.0,1.0,1.0,0.0,0.5172119140625,0.17041015625,-0.0897216796875,-0.01385498046875,0.003204345703125,0.002288818359375,B,0,2026-08-24_23-25-27,2026-08-24
0.048859934853420196,0.0,0.0,0.0,1.0,1.0,1.0,1.0,1.0,1.0,0.0,0.5194091796875,0.1673583984375,-0.0902099609375,-0.013519287109375,0.002899169921875,0.00750732421875,B,0,2026-08-24_23-25-27,2026-08-24
0.06912775968150561,0.0,0.0,0.0,1.0,1.0,1.0,1.0,1.0,1.0,0.0,0.5174560546875,0.166015625,-0.0865478515625,-0.011749267578125,-0.001129150390625,0.007843017578125,B,0,2026-08-24_23-25-27,2026-08-24
0.05465074194715889,0.0,0.0,0.0,1.0,1.0,1.0,1.0,1.0,1.0,0.0,0.515625,0.1656494140625,-0.090576171875,-0.00921630859375,-0.0013427734375,0.008056640625,B,0,2026-08-24_23-25-27,2026-08-24
0.06912775968150561,0.0,0.0,0.0,1.0,1.0,1.0,1.0,1.0,1.0,0.0,0.526611328125,0.16015625,-0.089599609375,-0.010101318359375,-0.010528564453125,0.00518798828125,B,0,2026-08-24_23-25-27,2026-08-24
0.06912775968150561,0.0,0.0,0.0,1.0,1.0,1.0,1.0,1.0,1.0,0.0,0.5220947265625,0.1650390625,-0.0965576171875,-0.015380859375,-0.014678955078125,0.005950927734375,B,0,2026-08-24_23-25-27,2026-08-24
0.06912775968150561,0.0,0.0,0.0,1.0,1.0,1.0,1.0,1.0,1.0,0.0,0.5220947265625,0.1641845703125,-0.0960693359375,-0.010528564453125,-0.01214599609375,0.01068115234375,B,0,2026-08-24_23-25-27,2026-08-24
0.05465074194715889,0.0,0.0,0.0,1.0,1.0,1.0,1.0,1.0,1.0,0.0,0.5201416015625,0.159423828125,-0.1005859375,-0.008819580078125,-0.011932373046875,0.00909423828125,B,0,2026-08-24_23-25-27,2026-08-24
0.06912775968150561,0.0,0.0,0.0,1.0,1.0,1.0,1.0,1.0,1.0,0.0,0.520751953125,0.1578369140625,-0.1041259765625,-0.01214599609375,-0.009124755859375,0.00164794921875,B,0,2026-08-24_23-25-27,2026-08-24
0.06912775968150561,0.0,0.0,0.0,1.0,1.0,1.0,1.0,1.0,1.0,0.0,0.5267333984375,0.159423828125,-0.1031494140625,-0.019866943359375,-0.012542724609375,0.000335693359375,B,0,2026-08-24_23-25-27,2026-08-24
0.06912775968150561,0.0,0.0,0.0,1.0,1.0,1.0,1.0,1.0,1.0,0.0,0.5172119140625,0.167236328125,-0.102783203125,-0.01776123046875,-0.010498046875,0.006317138671875,B,0,2026-08-24_23-25-27,2026-08-24
0.06912775968150561,0.0,0.0,0.0,1.0,1.0,1.0,1.0,1.0,1.0,0.0,0.523193359375,0.167236328125,-0.1011962890625,-0.007598876953125,-0.00579833984375,0.0076904296875,B,0,2026-08-24_23-25-27,2026-08-24
0.06912775968150561,0.0,0.0,0.0,1.0,1.0,1.0,1.0,1.0,1.0,0.0,0.526123046875,0.156005859375,-0.0953369140625,-0.01422119140625,-0.00640869140625,0.00091552734375,B,0,2026-08-24_23-25-27,2026-08-24
0.06912775968150561,0.0,0.0,0.0,1.0,1.0,1.0,1.0,1.0,1.0,0.0,0.5203857421875,0.1619873046875,-0.100341796875,-0.01739501953125,-0.011199951171875,0.002777099609375,B,0,2026-08-24_23-25-27,2026-08-24
0.06912775968150561,0.0,0.0,0.0,1.0,1.0,1.0,1.0,1.0,1.0,0.0,0.5174560546875,0.1630859375,-0.0955810546875,-0.023590087890625,-0.008209228515625,0.00531005859375,B,0,2026-08-24_23-25-27,2026-08-24
0.06912775968150561,0.0,0.0,0.0,1.0,1.0,1.0,1.0,1.0,1.0,0.0,0.5191650390625,0.15966796875,-0.1025390625,-0.027252197265625,0.0079345703125,0.002532958984375,B,0,2026-08-24_23-25-27,2026-08-24
0.06912775968150561,0.0,0.0,0.0,1.0,1.0,1.0,1.0,1.0,1.0,0.0,0.5321044921875,0.1629638671875,-0.1004638671875,-0.025665283203125,0.0074462890625,9.1552734375e-05,B,0,2026-08-24_23-25-27,2026-08-24
0.06912775968150561,0.0,0.0,0.0,1.0,1.0,1.0,1.0,1.0,1.0,0.0,0.530517578125,0.164794921875,-0.10205078125,-0.021392822265625,-0.009063720703125,0.002960205078125,B,0,2026-08-24_23-25-27,2026-08-24
0.06912775968150561,0.0,0.0,0.0,1.0,1.0,1.0,1.0,1.0,1.0,0.0,0.516845703125,0.160400390625,-0.0933837890625,-0.014556884765625,-0.010009765625,0.0089111328125,B,0,2026-08-24_23-25-27,2026-08-24
0.06912775968150561,0.0,0.0,0.0,0.9554140127388535,1.0,1.0,1.0,1.0,1.0,0.0,0.5181884765625,0.152099609375,-0.0975341796875,-0.01513671875,-0.00335693359375,0.006988525390625,B,0,2026-08-24_23-25-27,2026-08-24
0.06912775968150561,0.0,0.0,0.0,1.0,1.0,1.0,1.0,1.0,1.0,0.0,0.5218505859375,0.1484375,-0.1016845703125,-0.030914306640625,0.0042724609375,-0.00054931640625,B,0,2026-08-24_23-25-27,2026-08-24
0.18783930510314875,0.0,0.0,0.0,0.8152866242038217,1.0,1.0,1.0,1.0,1.0,1.0,0.512939453125,0.1519775390625,-0.14208984375,-0.011199951171875,0.010467529296875,0.00439453125,B,1,2026-08-24_23-25-27,2026-08-24
0.1907347086500181,0.0,0.0,0.0,0.802547770700637,1.0,1.0,1.0,1.0,1.0,1.0,0.5191650390625,0.1527099609375,-0.1351318359375,-0.01605224609375,-0.002899169921875,0.000244140625,B,1,2026-08-24_23-25-27,2026-08-24
0.18639160332971408,0.0,0.0,0.0,0.7898089171974523,1.0,1.0,1.0,1.0,1.0,1.0,0.5118408203125,0.16162109375,-0.1348876953125,-0.0142822265625,-0.019775390625,0.005126953125,B,1,2026-08-24_23-25-27,2026-08-24
0.18639160332971408,0.0,0.0,0.0,0.6496815286624203,1.0,1.0,1.0,1.0,1.0,1.0,0.50390625,0.164794921875,-0.1353759765625,0.000579833984375,-0.01226806640625,0.011474609375,B,1,2026-08-24_23-25-27,2026-08-24
0.17770539268910604,0.0,0.0,0.0,0.7006369426751592,1.0,1.0,1.0,1.0,1.0,1.0,0.5118408203125,0.15185546875,-0.1473388671875,-0.01318359375,0.007537841796875,0.0025634765625,B,1,2026-08-24_23-25-27,2026-08-24
0.1885631559898661,0.0,0.0,0.0,0.7006369426751592,1.0,1.0,1.0,1.0,1.0,1.0,0.52099609375,0.161376953125,-0.1356201171875,-0.01806640625,-0.000579833984375,0.002044677734375,B,1,2026-08-24_23-25-27,2026-08-24
0.18132464712269272,0.0,0.0,0.0,0.7261146496815286,1.0,1.0,1.0,1.0,1.0,1.0,0.5201416015625,0.1614990234375,-0.1412353515625,-0.013275146484375,-0.020721435546875,0.008331298828125,B,1,2026-08-24_23-25-27,2026-08-24
0.18204849800941006,0.0,0.0,0.0,0.6751592356687898,1.0,1.0,1.0,1.0,1.0,1.0,0.5030517578125,0.161376953125,-0.1435546875,-0.01165771484375,-0.016357421875,0.010711669921875,B,1,2026-08-24_23-25-27,2026-08-24
0.18060079623597539,0.0,0.0,0.0,0.6369426751592356,1.0,1.0,1.0,1.0,1.0,1.0,0.505615234375,0.1546630859375,-0.142822265625,-0.010345458984375,0.006988525390625,0.00836181640625,B,1,2026-08-24_23-25-27,2026-08-24
0.1885631559898661,0.0,0.0,0.0,0.7643312101910829,1.0,1.0,1.0,1.0,1.0,1.0,0.5159912109375,0.156494140625,-0.14697265625,-0.0196533203125,0.009033203125,0.00775146484375,B,1,2026-08-24_23-25-27,2026-08-24
0.17625769091567137,0.0,0.0,0.0,0.7388535031847133,1.0,1.0,1.0,1.0,1.0,1.0,0.5230712890625,0.1544189453125,-0.13818359375,-0.016357421875,-0.01324462890625,0.006927490234375,B,1,2026-08-24_23-25-27,2026-08-24
0.17263843648208468,0.0,0.0,0.0,0.7770700636942676,1.0,1.0,1.0,1.0,1.0,1.0,0.51025390625,0.1533203125,-0.1378173828125,-0.01019287109375,-0.017364501953125,0.008331298828125,B,1,2026-08-24_23-25-27,2026-08-24
0.18204849800941006,0.0,0.0,0.0,0.8152866242038217,1.0,1.0,1.0,1.0,1.0,1.0,0.509033203125,0.148193359375,-0.1446533203125,-0.010498046875,0.00653076171875,0.006683349609375,B,1,2026-08-24_23-25-27,2026-08-24
0.19145855953673543,0.0,0.0,0.0,0.7261146496815286,1.0,1.0,1.0,1.0,1.0,1.0,0.511962890625,0.1507568359375,-0.14013671875,-0.018035888671875,0.01287841796875,0.001922607421875,B,1,2026-08-24_23-25-27,2026-08-24
0.1791530944625407,0.0,0.0,0.0,0.7261146496815286,1.0,1.0,1.0,1.0,1.0,1.0,0.52392578125,0.1541748046875,-0.1395263671875,-0.015594482421875,-0.002838134765625,0.002227783203125,B,1,2026-08-24_23-25-27,2026-08-24
0.17046688382193267,0.0,0.0,0.0,0.7388535031847133,1.0,1.0,1.0,1.0,1.0,1.0,0.51318359375,0.1575927734375,-0.1375732421875,-0.009613037109375,-0.01629638671875,0.0042724609375,B,1,2026-08-24_23-25-27,2026-08-24
0.18060079623597539,0.0,0.0,0.0,0.7515923566878981,1.0,1.0,1.0,1.0,1.0,1.0,0.50634765625,0.1534423828125,-0.1380615234375,-0.00372314453125,-0.00439453125,0.00396728515625,B,1,2026-08-24_23-25-27,2026-08-24
0.17987694534925805,0.0,0.0,0.0,0.7515923566878981,1.0,1.0,1.0,1.0,1.0,1.0,0.511474609375,0.152587890625,-0.1419677734375,-0.015045166015625,0.009765625,-0.000946044921875,B,1,2026-08-24_23-25-27,2026-08-24
0.1885631559898661,0.0,0.0,0.0,0.6369426751592356,1.0,1.0,1.0,1.0,1.0,1.0,0.5198974609375,0.1573486328125,-0.1302490234375,-0.02154541015625,-0.002166748046875,-0.000396728515625,B,1,2026-08-24_23-25-27,2026-08-24
0.18349619978284473,0.0,0.0,0.0,0.7006369426751592,1.0,1.0,1.0,1.0,1.0,1.0,0.517333984375,0.1661376953125,-0.13623046875,-0.009765625,-0.022857666015625,0.006195068359375,B,1,2026-08-24_23-25-27,2026-08-24
0.17770539268910604,0.0,0.0,0.0,0.6751592356687898,1.0,1.0,1.0,1.0,1.0,1.0,0.506591796875,0.15869140625,-0.129150390625,-0.003143310546875,-0.024932861328125,0.006256103515625,B,1,2026-08-24_23-25-27,2026-08-24
0.18349619978284473,0.0,0.0,0.0,0.7770700636942676,1.0,1.0,1.0,1.0,1.0,1.0,0.5032958984375,0.1553955078125,-0.1392822265625,-0.00439453125,-0.000518798828125,0.006011962890625,B,1,2026-08-24_23-25-27,2026-08-24
0.17987694534925805,0.0,0.0,0.0,0.7515923566878981,1.0,1.0,1.0,1.0,1.0,1.0,0.516845703125,0.1539306640625,-0.1453857421875,-0.006011962890625,0.012664794921875,0.006500244140625,B,1,2026-08-24_23-25-27,2026-08-24
0.1849439015562794,0.0,0.0,0.0,0.6496815286624203,1.0,1.0,1.0,1.0,1.0,1.0,0.5245361328125,0.1513671875,-0.1409912109375,-0.014678955078125,-0.008148193359375,0.004852294921875,B,1,2026-08-24_23-25-27,2026-08-24
0.18349619978284473,0.0,0.0,0.0,0.5732484076433121,1.0,1.0,1.0,1.0,1.0,1.0,0.5172119140625,0.1536865234375,-0.1361083984375,-0.003814697265625,-0.0244140625,0.00799560546875,B,1,2026-08-24_23-25-27,2026-08-24
0.1849439015562794,0.0,0.0,0.0,0.7770700636942676,1.0,1.0,1.0,1.0,1.0,1.0,0.5079345703125,0.148193359375,-0.1431884765625,-0.00250244140625,-0.013092041015625,0.00653076171875,B,1,2026-08-24_23-25-27,2026-08-24
0.17263843648208468,0.0,0.0,0.0,0.6751592356687898,1.0,1.0,1.0,1.0,1.0,1.0,0.5074462890625,0.1478271484375,-0.140380859375,-0.011871337890625,0.00628662109375,0.001129150390625,B,1,2026-08-24_23-25-27,2026-08-24
0.17625769091567137,0.0,0.0,0.0,0.5732484076433121,1.0,1.0,1.0,1.0,1.0,1.0,0.518798828125,0.156494140625,-0.136474609375,-0.010223388671875,0.001220703125,0.002410888671875,B,1,2026-08-24_23-25-27,2026-08-24
0.1791530944625407,0.0,0.0,0.0,0.7133757961783439,1.0,1.0,1.0,1.0,1.0,1.0,0.525390625,0.1552734375,-0.1361083984375,-0.001861572265625,-0.02191162109375,0.007080078125,B,1,2026-08-24_23-25-27,2026-08-24
0.17119073470865,0.0,0.0,0.0,0.7261146496815286,1.0,1.0,1.0,1.0,1.0,1.0,0.5125732421875,0.151611328125,-0.137451171875,0.001068115234375,-0.023773193359375,0.008148193359375,B,1,2026-08-24_23-25-27,2026-08-24
0.1769815418023887,0.0,0.0,0.0,0.7770700636942676,1.0,1.0,1.0,1.0,1.0,1.0,0.5052490234375,0.1490478515625,-0.1439208984375,-0.003143310546875,-0.010284423828125,0.004974365234375,B,1,2026-08-24_23-25-27,2026-08-24
0.1791530944625407,0.0,0.0,0.0,0.6114649681528662,1.0,1.0,1.0,1.0,1.0,1.0,0.5108642578125,0.1495361328125,-0.1368408203125,-0.000518798828125,-0.001708984375,0.0015869140625,B,1,2026-08-24_23-25-27,2026-08-24
0.19507781397032212,0.0,0.0,0.0,0.6242038216560509,1.0,1.0,1.0,1.0,1.0,1.0,0.516357421875,0.1561279296875,-0.1396484375,0.012969970703125,-0.008453369140625,0.005615234375,B,1,2026-08-24_23-25-27,2026-08-24
0.18639160332971408,0.0,0.0,0.0,0.7261146496815286,1.0,1.0,1.0,1.0,1.0,1.0,0.521728515625,0.1448974609375,-0.14111328125,0.02264404296875,-0.0220947265625,0.004241943359375,B,1,2026-08-24_23-25-27,2026-08-24
0.18566775244299674,0.0,0.0,0.0,0.6751592356687898,1.0,1.0,1.0,1.0,1.0,1.0,0.5186767578125,0.1453857421875,-0.146728515625,0.024810791015625,-0.03460693359375,0.00311279296875,B,1,2026-08-24_23-25-27,2026-08-24
0.2290988056460369,0.0,0.0,0.0,0.5477707006369427,1.0,1.0,1.0,1.0,1.0,1.0,0.52001953125,0.150390625,-0.15234375,0.022491455078125,-0.06866455078125,0.01666259765625,B,1,2026-08-24_23-25-27,2026-08-24
0.26529134998190373,0.0,0.0,0.0,0.7515923566878981,1.0,1.0,1.0,1.0,1.0,1.0,0.5157470703125,0.16015625,-0.1314697265625,0.02935791015625,-0.050628662109375,0.02587890625,B,1,2026-08-24_23-25-27,2026-08-24
0.2841114730365545,0.0,0.0,0.0,0.6624203821656051,1.0,1.0,1.0,1.0,1.0,1.0,0.5078125,0.190185546875,-0.17724609375,0.044189453125,-0.03265380859375,0.035400390625,B,1,2026-08-24_23-25-27,2026-08-24
0.30727470141150925,0.0,0.0,0.0,0.6496815286624203,1.0,1.0,1.0,1.0,1.0,1.0,0.5421142578125,0.174072265625,-0.0980224609375,0.089324951171875,-0.1085205078125,0.067596435546875,B,1,2026-08-24_23-25-27,2026-08-24
0.3152370611653999,0.0,0.0,0.05913978494623656,0.5732484076433121,1.0,1.0,1.0,1.0,1.0,1.0,0.8448486328125,0.0684814453125,-0.255615234375,-0.06005859375,-0.079437255859375,0.006317138671875,B,1,2026-08-24_23-25-27,2026-08-24
0.22982265653275424,1.0,0.0,0.0,0.8152866242038217,1.0,1.0,1.0,1.0,1.0,0.0,0.4864501953125,0.1414794921875,-0.200439453125,-0.006439208984375,-0.00982666015625,0.002349853515625,B,2,2026-08-24_23-25-27,2026-08-24
0.2290988056460369,1.0,0.0,0.0,0.7261146496815286,1.0,1.0,1.0,1.0,1.0,0.0,0.494140625,0.140380859375,-0.20849609375,-0.015411376953125,0.00091552734375,-0.00225830078125,B,2,2026-08-24_23-25-27,2026-08-24
0.22620340209916756,1.0,0.0,0.0,0.802547770700637,1.0,1.0,1.0,1.0,1.0,0.0,0.498291015625,0.1485595703125,-0.204345703125,-0.012939453125,-0.001983642578125,-3.0517578125e-05,B,2,2026-08-24_23-25-27,2026-08-24
0.2269272529858849,1.0,0.0,0.0,0.8152866242038217,1.0,1.0,1.0,1.0,1.0,0.0,0.5030517578125,0.143798828125,-0.201416015625,-0.00390625,-0.016204833984375,-6.103515625e-05,B,2,2026-08-24_23-25-27,2026-08-24
0.22547955121245022,1.0,0.0,0.0,0.8407643312101911,1.0,1.0,1.0,1.0,1.0,0.0,0.4869384765625,0.140625,-0.204345703125,-0.0052490234375,-0.01898193359375,-0.00238037109375,B,2,2026-08-24_23-25-27,2026-08-24
0.2269272529858849,1.0,0.0,0.0,0.7898089171974523,1.0,1.0,1.0,1.0,1.0,0.0,0.482177734375,0.1470947265625,-0.2003173828125,-0.004150390625,-0.00799560546875,-0.0020751953125,B,2,2026-08-24_23-25-27,2026-08-24
0.22837495475931957,1.0,0.0,0.0,0.8152866242038217,1.0,1.0,1.0,1.0,1.0,0.0,0.491943359375,0.148681640625,-0.20849609375,-0.011138916015625,-0.00244140625,-0.002960205078125,B,2,2026-08-24_23-25-27,2026-08-24
0.22330799855229821,1.0,0.0,0.0,0.8152866242038217,1.0,1.0,1.0,1.0,1.0,0.0,0.4896240234375,0.15234375,-0.2025146484375,-0.01513671875,-0.00506591796875,0.00018310546875,B,2,2026-08-24_23-25-27,2026-08-24
0.22547955121245022,1.0,0.0,0.0,0.7388535031847133,1.0,1.0,1.0,1.0,1.0,0.0,0.4942626953125,0.1466064453125,-0.2060546875,-0.012298583984375,-0.013824462890625,0.00128173828125,B,2,2026-08-24_23-25-27,2026-08-24
0.2269272529858849,1.0,0.0,0.0,0.8152866242038217,1.0,1.0,1.0,1.0,1.0,0.0,0.4879150390625,0.146484375,-0.2095947265625,-0.01776123046875,-0.00726318359375,-0.00079345703125,B,2,2026-08-24_23-25-27,2026-08-24
0.2290988056460369,1.0,0.0,0.0,0.802547770700637,1.0,1.0,1.0,1.0,1.0,0.0,0.48974609375,0.1444091796875,-0.20556640625,-0.0130615234375,-0.003936767578125,0.000762939453125,B,2,2026-08-24_23-25-27,2026-08-24
0.2290988056460369,1.0,0.0,0.0,0.7261146496815286,1.0,1.0,1.0,1.0,1.0,0.0,0.4891357421875,0.141357421875,-0.2049560546875,-0.015380859375,0.00177001953125,0.001068115234375,B,2,2026-08-24_23-25-27,2026-08-24
0.22620340209916756,1.0,0.0,0.0,0.8152866242038217,1.0,1.0,1.0,1.0,1.0,0.0,0.5003662109375,0.1407470703125,-0.2010498046875,-0.0125732421875,-0.005157470703125,0.0008544921875,B,2,2026-08-24_23-25-27,2026-08-24
0.22330799855229821,1.0,0.0,0.0,0.7898089171974523,1.0,1.0,1.0,1.0,1.0,0.0,0.495849609375,0.1427001953125,-0.2030029296875,-0.011505126953125,-0.01763916015625,0.001007080078125,B,2,2026-08-24_23-25-27,2026-08-24
0.23054650741947158,1.0,0.0,0.0,0.8152866242038217,1.0,1.0,1.0,1.0,1.0,0.0,0.4881591796875,0.1427001953125,-0.201171875,-0.00909423828125,-0.010101318359375,0.000732421875,B,2,2026-08-24_23-25-27,2026-08-24
0.22765110387260223,1.0,0.0,0.0,0.7515923566878981,1.0,1.0,1.0,1.0,1.0,0.0,0.4888916015625,0.149169921875,-0.197265625,-0.014434814453125,0.002166748046875,-0.000579833984375,B,2,2026-08-24_23-25-27,2026-08-24
0.23127035830618892,1.0,0.0,0.0,0.8152866242038217,1.0,1.0,1.0,1.0,1.0,0.0,0.4935302734375,0.1466064453125,-0.2027587890625,-0.01605224609375,-0.001922607421875,-0.0001220703125,B,2,2026-08-24_23-25-27,2026-08-24
0.22837495475931957,1.0,0.0,0.0,0.8535031847133758,1.0,1.0,1.0,1.0,1.0,0.0,0.498291015625,0.1478271484375,-0.2042236328125,-0.012237548828125,-0.01904296875,0.0018310546875,B,2,2026-08-24_23-25-27,2026-08-24
0.23054650741947158,1.0,0.0,0.0,0.7006369426751592,1.0,1.0,1.0,1.0,1.0,0.0,0.4906005859375,0.144775390625,-0.2073974609375,-0.008026123046875,-0.02069091796875,0.002716064453125,B,2,2026-08-24_23-25-27,2026-08-24
0.22547955121245022,1.0,0.0,0.0,0.8152866242038217,1.0,1.0,1.0,1.0,1.0,0.0,0.4866943359375,0.1448974609375,-0.210693359375,-0.012847900390625,0.00604248046875,0.000885009765625,B,2,2026-08-24_23-25-27,2026-08-24
0.2269272529858849,1.0,0.0,0.0,0.802547770700637,1.0,1.0,1.0,1.0,1.0,0.0,0.4913330078125,0.146484375,-0.2054443359375,-0.020538330078125,0.0106201171875,0.002593994140625,B,2,2026-08-24_23-25-27,2026-08-24
0.2290988056460369,1.0,0.0,0.0,0.8152866242038217,1.0,1.0,1.0,1.0,1.0,0.0,0.4979248046875,0.1446533203125,-0.20458984375,-0.0155029296875,-0.008453369140625,0.00518798828125,B,2,2026-08-24_23-25-27,2026-08-24
0.22330799855229821,1.0,0.0,0.0,0.8152866242038217,1.0,1.0,1.0,1.0,1.0,0.0,0.492431640625,0.1461181640625,-0.2037353515625,-0.012969970703125,-0.019927978515625,0.00439453125,B,2,2026-08-24_23-25-27,2026-08-24
0.22982265653275424,1.0,0.0,0.0,0.802547770700637,1.0,1.0,1.0,1.0,1.0,0.0,0.4833984375,0.1484375,-0.2056884765625,-0.00848388671875,-0.00634765625,0.0054931640625,B,2,2026-08-24_23-25-27,2026-08-24
0.2269272529858849,1.0,0.0,0.0,0.802547770700637,1.0,1.0,1.0,1.0,1.0,0.0,0.4886474609375,0.13818359375,-0.19921875,-0.016693115234375,0.00946044921875,0.003692626953125,B,2,2026-08-24_23-25-27,2026-08-24
0.22403184943901555,1.0,0.0,0.0,0.802547770700637,1.0,1.0,1.0,1.0,1.0,0.0,0.495849609375,0.1478271484375,-0.1993408203125,-0.02056884765625,0.00848388671875,0.0030517578125,B,2,2026-08-24_23-25-27,2026-08-24
0.22620340209916756,1.0,0.0,0.0,0.7388535031847133,1.0,1.0,1.0,1.0,1.0,0.0,0.50341796875,0.146728515625,-0.201171875,-0.012359619140625,-0.0169677734375,0.00274658203125,B,2,2026-08-24_23-25-27,2026-08-24
0.2269272529858849,1.0,0.0,0.0,0.8152866242038217,1.0,1.0,1.0,1.0,1.0,0.0,0.4896240234375,0.1455078125,-0.1978759765625,-0.007476806640625,-0.021087646484375,0.000885009765625,B,2,2026-08-24_23-25-27,2026-08-24
0.23054650741947158,1.0,0.0,0.0,0.8152866242038217,1.0,1.0,1.0,1.0,1.0,0.0,0.483154296875,0.1419677734375,-0.2039794921875,-0.015777587890625,0.00506591796875,0.00152587890625,B,2,2026-08-24_23-25-27,2026-08-24
0.23054650741947158,1.0,0.0,0.0,0.802547770700637,1.0,1.0,1.0,1.0,1.0,0.0,0.4915771484375,0.147216796875,-0.2130126953125,-0.023101806640625,0.015625,0.000396728515625,B,2,2026-08-24_23-25-27,2026-08-24
0.22258414766558088,1.0,0.0,0.0,0.8152866242038217,1.0,1.0,1.0,1.0,1.0,0.0,0.50244140625,0.147216796875,-0.2049560546875,-0.018218994140625,-0.006805419921875,0.0009765625,B,2,2026-08-24_23-25-27,2026-08-24
0.23127035830618892,1.0,0.0,0.0,0.8152866242038217,1.0,1.0,1.0,1.0,1.0,0.0,0.494873046875,0.146728515625,-0.2020263671875,-0.01123046875,-0.022308349609375,0.00396728515625,B,2,2026-08-24_23-25-27,2026-08-24
0.22403184943901555,1.0,0.0,0.0,0.7770700636942676,1.0,1.0,1.0,1.0,1.0,0.0,0.4857177734375,0.142578125,-0.1968994140625,-0.009307861328125,-0.000335693359375,0.0030517578125,B,2,2026-08-24_23-25-27,2026-08-24
0.22620340209916756,1.0,0.0,0.0,0.8152866242038217,1.0,1.0,1.0,1.0,1.0,0.0,0.48681640625,0.141845703125,-0.19677734375,-0.0152587890625,0.022369384765625,0.002410888671875,B,2,2026-08-24_23-25-27,2026-08-24
0.22837495475931957,1.0,0.0,0.0,0.7770700636942676,1.0,1.0,1.0,1.0,1.0,0.0,0.50146484375,0.1441650390625,-0.2037353515625,-0.01776123046875,0.005340576171875,0.00164794921875,B,2,2026-08-24_23-25-27,2026-08-24
0.2269272529858849,1.0,0.0,0.0,0.8152866242038217,1.0,1.0,1.0,1.0,1.0,0.0,0.4990234375,0.145263671875,-0.1982421875,-0.009063720703125,-0.0186767578125,0.00531005859375,B,2,2026-08-24_23-25-27,2026-08-24
0.22837495475931957,1.0,0.0,0.0,0.8152866242038217,1.0,1.0,1.0,1.0,1.0,0.0,0.482666015625,0.146240234375,-0.1912841796875,0.000274658203125,-0.011932373046875,0.007537841796875,B,2,2026-08-24_23-25-27,2026-08-24
0.22041259500542887,1.0,0.0,0.0,0.8152866242038217,1.0,1.0,1.0,1.0,1.0,0.0,0.4871826171875,0.1390380859375,-0.1961669921875,-0.002410888671875,0.009674072265625,0.00439453125,B,2,2026-08-24_23-25-27,2026-08-24
0.22258414766558088,1.0,0.0,0.0,0.8407643312101911,1.0,1.0,1.0,1.0,1.0,0.0,0.4986572265625,0.1392822265625,-0.197509765625,-0.01019287109375,0.006439208984375,0.003326416015625,B,2,2026-08-24_23-25-27,2026-08-24
0.2189648932319942,1.0,0.0,0.0,0.7515923566878981,1.0,1.0,1.0,1.0,1.0,0.0,0.5042724609375,0.1407470703125,-0.2010498046875,-0.006378173828125,-0.0250244140625,0.0040283203125,B,2,2026-08-24_23-25-27,2026-08-24
0.334781035106768,1.0,0.0,0.0,0.7515923566878981,1.0,1.0,1.0,1.0,1.0,0.0,0.497802734375,0.1519775390625,-0.1904296875,-0.02191162109375,0.021240234375,-0.0006103515625,B,3,2026-08-24_23-25-27,2026-08-24
0.3275425262395946,1.0,0.0,0.0,0.8152866242038217,1.0,1.0,1.0,1.0,1.0,0.0,0.505615234375,0.1536865234375,-0.1905517578125,-0.0191650390625,-0.006011962890625,0.00030517578125,B,3,2026-08-24_23-25-27,2026-08-24
0.32609482446615995,1.0,0.0,0.0,0.7388535031847133,1.0,1.0,1.0,1.0,1.0,0.0,0.492919921875,0.15478515625,-0.1854248046875,-0.017547607421875,-0.025360107421875,0.001953125,B,3,2026-08-24_23-25-27,2026-08-24
0.33043792978646397,1.0,0.0,0.0,0.8152866242038217,1.0,1.0,1.0,1.0,1.0,0.0,0.4853515625,0.16064453125,-0.18212890625,-0.00750732421875,-0.0040283203125,0.0047607421875,B,3,2026-08-24_23-25-27,2026-08-24
0.33188563155989864,1.0,0.0,0.0,0.8407643312101911,1.0,1.0,1.0,1.0,1.0,0.0,0.4935302734375,0.15673828125,-0.1766357421875,-0.010955810546875,0.018829345703125,0.003021240234375,B,3,2026-08-24_23-25-27,2026-08-24
0.3311617806731813,1.0,0.0,0.0,0.7898089171974523,1.0,1.0,1.0,1.0,1.0,0.0,0.5087890625,0.154052734375,-0.173095703125,-0.02142333984375,-0.003814697265625,0.0008544921875,B,3,2026-08-24_23-25-27,2026-08-24
0.33405718422005065,1.0,0.0,0.0,0.7515923566878981,1.0,1.0,1.0,1.0,1.0,0.0,0.50146484375,0.1536865234375,-0.1776123046875,-0.016387939453125,-0.039398193359375,0.00396728515625,B,3,2026-08-24_23-25-27,2026-08-24
0.3333333333333333,1.0,0.0,0.0,0.8152866242038217,1.0,1.0,1.0,1.0,1.0,0.0,0.4886474609375,0.1556396484375,-0.1798095703125,-0.01708984375,-0.03558349609375,0.009735107421875,B,3,2026-08-24_23-25-27,2026-08-24
0.33043792978646397,1.0,0.0,0.0,0.8280254777070064,1.0,1.0,1.0,1.0,1.0,0.0,0.48828125,0.1593017578125,-0.1854248046875,-0.014251708984375,-0.005462646484375,0.00677490234375,B,3,2026-08-24_23-25-27,2026-08-24
0.334781035106768,1.0,0.0,0.0,0.8152866242038217,1.0,1.0,1.0,1.0,1.0,0.0,0.5035400390625,0.1510009765625,-0.1881103515625,-0.012115478515625,-0.006927490234375,-0.000335693359375,B,3,2026-08-24_23-25-27,2026-08-24
0.334781035106768,1.0,0.0,0.0,0.802547770700637,1.0,1.0,1.0,1.0,1.0,0.0,0.5025634765625,0.1558837890625,-0.18359375,-0.01666259765625,-0.033111572265625,0.00030517578125,B,3,2026-08-24_23-25-27,2026-08-24
0.334781035106768,1.0,0.0,0.0,0.7643312101910829,1.0,1.0,1.0,1.0,1.0,0.0,0.489990234375,0.158447265625,-0.18994140625,-0.006317138671875,-0.023223876953125,0.011810302734375,B,3,2026-08-24_23-25-27,2026-08-24
0.334781035106768,1.0,0.0,0.0,0.9044585987261147,1.0,1.0,1.0,1.0,1.0,0.0,0.493896484375,0.1495361328125,-0.1956787109375,-0.009124755859375,-0.002044677734375,0.00811767578125,B,3,2026-08-24_23-25-27,2026-08-24
0.334781035106768,1.0,0.0,0.0,0.8152866242038217,1.0,1.0,1.0,1.0,1.0,0.0,0.4962158203125,0.1500244140625,-0.1988525390625,-0.00823974609375,0.009002685546875,0.001739501953125,B,3,2026-08-24_23-25-27,2026-08-24
0.334781035106768,1.0,0.0,0.0,0.8152866242038217,1.0,1.0,1.0,1.0,1.0,0.0,0.5008544921875,0.1505126953125,-0.1905517578125,-0.011810302734375,-0.001861572265625,-0.00054931640625,B,3,2026-08-24_23-25-27,2026-08-24
0.3333333333333333,1.0,0.0,0.0,0.8152866242038217,1.0,1.0,1.0,1.0,1.0,0.0,0.5015869140625,0.1549072265625,-0.18408203125,-0.0015869140625,-0.007537841796875,0.00390625,B,3,2026-08-24_23-25-27,2026-08-24
0.3333333333333333,1.0,0.0,0.0,0.7515923566878981,1.0,1.0,1.0,1.0,1.0,0.0,0.4952392578125,0.1473388671875,-0.179931640625,0.000518798828125,-0.00372314453125,0.005340576171875,B,3,2026-08-24_23-25-27,2026-08-24
0.334781035106768,1.0,0.0,0.0,0.7261146496815286,1.0,1.0,1.0,1.0,1.0,0.0,0.49267578125,0.1502685546875,-0.1778564453125,-0.021484375,0.000640869140625,0.00531005859375,B,3,2026-08-24_23-25-27,2026-08-24
0.3355048859934853,1.0,0.0,0.0,0.7388535031847133,1.0,1.0,1.0,1.0,1.0,0.0,0.4991455078125,0.1551513671875,-0.1851806640625,-0.015869140625,-0.00860595703125,0.00885009765625,B,3,2026-08-24_23-25-27,2026-08-24
0.334781035106768,1.0,0.0,0.0,0.8535031847133758,1.0,1.0,1.0,1.0,1.0,0.0,0.502197265625,0.1588134765625,-0.181884765625,-0.009490966796875,-0.021453857421875,0.0089111328125,B,3,2026-08-24_23-25-27,2026-08-24
0.33767643865363733,1.0,0.0,0.0,0.8152866242038217,1.0,1.0,1.0,1.0,1.0,0.0,0.49267578125,0.15625,-0.1749267578125,-0.020263671875,-0.032867431640625,0.0040283203125,B,3,2026-08-24_23-25-27,2026-08-24
0.341295693087224,1.0,0.0,0.0,0.8407643312101911,1.0,1.0,1.0,1.0,1.0,0.0,0.486083984375,0.16162109375,-0.1846923828125,-0.014739990234375,-0.01470947265625,0.01202392578125,B,3,2026-08-24_23-25-27,2026-08-24
0.341295693087224,1.0,0.0,0.0,0.89171974522293,1.0,1.0,1.0,1.0,1.0,0.0,0.4991455078125,0.1513671875,-0.193603515625,-0.00396728515625,-0.01507568359375,0.01263427734375,B,3,2026-08-24_23-25-27,2026-08-24
0.3427433948606587,1.0,0.0,0.0,0.8407643312101911,1.0,1.0,1.0,1.0,1.0,0.0,0.4979248046875,0.1556396484375,-0.191650390625,0.002685546875,-0.017913818359375,0.011749267578125,B,3,2026-08-24_23-25-27,2026-08-24
0.34201954397394135,1.0,0.0,0.0,0.8152866242038217,1.0,1.0,1.0,1.0,1.0,0.0,0.489990234375,0.1553955078125,-0.19482421875,0.016082763671875,-0.011444091796875,0.01513671875,B,3,2026-08-24_23-25-27,2026-08-24
0.34781035106768005,1.0,0.0,0.0,0.8280254777070064,1.0,1.0,1.0,1.0,1.0,0.0,0.484619140625,0.1478271484375,-0.1988525390625,0.0145263671875,0.013702392578125,0.016326904296875,B,3,2026-08-24_23-25-27,2026-08-24
0.34781035106768005,1.0,0.0,0.0,0.8152866242038217,1.0,1.0,1.0,1.0,1.0,0.0,0.5008544921875,0.139892578125,-0.1976318359375,0.010223388671875,0.015045166015625,0.0057373046875,B,3,2026-08-24_23-25-27,2026-08-24
0.3463626492942454,1.0,0.0,0.0,0.7006369426751592,1.0,1.0,1.0,1.0,1.0,0.0,0.5048828125,0.138671875,-0.2037353515625,-0.006744384765625,0.00140380859375,-0.001556396484375,B,3,2026-08-24_23-25-27,2026-08-24
0.3485342019543974,1.0,0.0,0.0,0.8152866242038217,1.0,1.0,1.0,1.0,1.0,0.0,0.4967041015625,0.146484375,-0.19482421875,-0.001861572265625,-0.001678466796875,-0.00439453125,B,3,2026-08-24_23-25-27,2026-08-24
0.34998190372783206,1.0,0.0,0.0,0.8152866242038217,1.0,1.0,1.0,1.0,1.0,0.0,0.4935302734375,0.1505126953125,-0.1878662109375,0.001068115234375,0.013397216796875,-0.0084228515625,B,3,2026-08-24_23-25-27,2026-08-24
0.3485342019543974,1.0,0.0,0.0,0.8152866242038217,1.0,1.0,1.0,1.0,1.0,0.0,0.4942626953125,0.149169921875,-0.1822509765625,-0.00628662109375,0.036407470703125,-0.008758544921875,B,3,2026-08-24_23-25-27,2026-08-24
0.3470865001809627,1.0,0.0,0.0,0.8152866242038217,1.0,1.0,1.0,1.0,1.0,0.0,0.507568359375,0.1456298828125,-0.176025390625,-0.02197265625,0.017120361328125,-0.00677490234375,B,3,2026-08-24_23-25-27,2026-08-24
0.3470865001809627,1.0,0.0,0.0,0.8152866242038217,1.0,1.0,1.0,1.0,1.0,0.0,0.503662109375,0.1575927734375,-0.1663818359375,-0.024261474609375,-0.01898193359375,0.00018310546875,B,3,2026-08-24_23-25-27,2026-08-24
0.34781035106768005,1.0,0.0,0.0,0.8280254777070064,1.0,1.0,1.0,1.0,1.0,0.0,0.49658203125,0.1573486328125,-0.165771484375,-0.010589599609375,-0.025390625,0.005584716796875,B,3,2026-08-24_23-25-27,2026-08-24
0.3485342019543974,1.0,0.0,0.0,0.7898089171974523,1.0,1.0,1.0,1.0,1.0,0.0,0.48876953125,0.15087890625,-0.1751708984375,-0.008056640625,-0.003936767578125,0.00335693359375,B,3,2026-08-24_23-25-27,2026-08-24
0.3470865001809627,1.0,0.0,0.0,0.7898089171974523,1.0,1.0,1.0,1.0,1.0,0.0,0.497314453125,0.149169921875,-0.1854248046875,-0.016204833984375,0.002838134765625,0.003265380859375,B,3,2026-08-24_23-25-27,2026-08-24
0.34781035106768005,1.0,0.0,0.0,0.7898089171974523,1.0,1.0,1.0,1.0,1.0,0.0,0.509033203125,0.14697265625,-0.1929931640625,-0.01873779296875,-0.029998779296875,0.00396728515625,B,3,2026-08-24_23-25-27,2026-08-24
0.3470865001809627,1.0,0.0,0.0,0.8152866242038217,1.0,1.0,1.0,1.0,1.0,0.0,0.498291015625,0.1485595703125,-0.1888427734375,-0.015380859375,-0.0465087890625,0.006683349609375,B,3,2026-08-24_23-25-27,2026-08-24
0.3470865001809627,1.0,0.0,0.0,0.7388535031847133,1.0,1.0,1.0,1.0,1.0,0.0,0.4842529296875,0.1463623046875,-0.1988525390625,-0.01007080078125,-0.011322021484375,0.003265380859375,B,3,2026-08-24_23-25-27,2026-08-24
0.3485342019543974,1.0,0.0,0.0,0.7770700636942676,1.0,1.0,1.0,1.0,1.0,0.0,0.48828125,0.14453125,-0.2034912109375,-0.023651123046875,0.034332275390625,-0.001861572265625,B,3,2026-08-24_23-25-27,2026-08-24
0.2761491132826638,0.0,0.0,0.0,0.6751592356687898,1.0,1.0,1.0,1.0,1.0,0.0,0.4979248046875,0.1590576171875,-0.1898193359375,-0.005218505859375,-0.0260009765625,0.0123291015625,B,4,2026-08-24_23-25-27,2026-08-24
0.2819399203764025,0.0,0.0,0.0,0.6878980891719745,1.0,1.0,1.0,1.0,1.0,0.0,0.4940185546875,0.1510009765625,-0.1995849609375,-0.0059814453125,-0.020111083984375,0.014617919921875,B,4,2026-08-24_23-25-27,2026-08-24
0.27904451682953313,0.0,0.0,0.0,0.6751592356687898,1.0,1.0,1.0,1.0,1.0,0.0,0.4906005859375,0.1480712890625,-0.1934814453125,-0.026123046875,0.005126953125,0.011444091796875,B,4,2026-08-24_23-25-27,2026-08-24
