flex_pinky,flex_ring,flex_middle,flex_index,flex_thumb,touch_index,touch_middle,touch_ring,touch_pinky,touch_r,touch_u,ax,ay,az,gx,gy,gz,label,rep,session,day
1.0,1.0,0.9583333333333334,1.0,0.4434782608695652,1.0,1.0,1.0,1.0,0.0,1.0,0.554443359375,-0.0224609375,0.0546875,-0.011474609375,-0.0103759765625,-0.006988525390625,A,0,2026-08-24_22-04-28,2026-08-24
1.0,1.0,1.0,0.9676674364896074,0.5130434782608696,1.0,1.0,1.0,1.0,0.0,1.0,0.551025390625,-0.020751953125,0.0543212890625,-0.01177978515625,-0.011871337890625,-0.004364013671875,A,0,2026-08-24_22-04-28,2026-08-24
1.0,1.0,0.9647435897435898,0.9168591224018475,0.3652173913043478,1.0,1.0,1.0,1.0,0.0,1.0,0.5574951171875,-0.017822265625,0.0460205078125,-0.01263427734375,-0.0093994140625,-0.00067138671875,A,0,2026-08-24_22-04-28,2026-08-24
1.0,1.0,0.9487179487179487,1.0,0.48695652173913045,1.0,1.0,1.0,1.0,0.0,1.0,0.555419921875,-0.020751953125,0.053955078125,-0.013427734375,-0.00927734375,0.003753662109375,A,0,2026-08-24_22-04-28,2026-08-24
1.0,1.0,0.9631410256410257,0.9030023094688222,0.5304347826086957,1.0,1.0,1.0,1.0,0.0,1.0,0.556396484375,-0.028076171875,0.0540771484375,-0.017608642578125,-0.00689697265625,0.0048828125,A,0,2026-08-24_22-04-28,2026-08-24
1.0,1.0,0.9759615384615384,1.0,0.45217391304347826,1.0,1.0,1.0,1.0,0.0,1.0,0.553955078125,-0.029296875,0.056396484375,-0.015289306640625,-0.004486083984375,0.006622314453125,A,0,2026-08-24_22-04-28,2026-08-24
1.0,1.0,0.9519230769230769,0.8521939953810623,0.4608695652173913,1.0,1.0,1.0,1.0,0.0,1.0,0.557373046875,-0.034912109375,0.05908203125,-0.013519287109375,-0.00457763671875,0.007843017578125,A,0,2026-08-24_22-04-28,2026-08-24
1.0,1.0,0.9599358974358975,0.9815242494226328,0.3565217391304348,1.0,1.0,1.0,1.0,0.0,1.0,0.5579833984375,-0.0384521484375,0.058837890625,-0.0140380859375,-0.00799560546875,0.005950927734375,A,0,2026-08-24_22-04-28,2026-08-24
1.0,1.0,0.9871794871794872,0.930715935334873,0.40869565217391307,1.0,1.0,1.0,1.0,0.0,1.0,0.5589599609375,-0.04052734375,0.064453125,-0.012969970703125,-0.01025390625,0.005218505859375,A,0,2026-08-24_22-04-28,2026-08-24
1.0,1.0,0.9871794871794872,0.9168591224018475,0.4,1.0,1.0,1.0,1.0,0.0,1.0,0.5623779296875,-0.04150390625,0.0634765625,-0.0167236328125,-0.01300048828125,0.00677490234375,A,0,2026-08-24_22-04-28,2026-08-24
1.0,0.9899053627760253,0.9599358974358975,0.9722863741339491,0.4608695652173913,1.0,1.0,1.0,1.0,0.0,1.0,0.5576171875,-0.0465087890625,0.05908203125,-0.01654052734375,-0.01544189453125,0.00457763671875,A,0,2026-08-24_22-04-28,2026-08-24
1.0,1.0,0.9903846153846154,0.9815242494226328,0.48695652173913045,1.0,1.0,1.0,1.0,0.0,1.0,0.558837890625,-0.04248046875,0.05810546875,-0.019683837890625,-0.009002685546875,0.00262451171875,A,0,2026-08-24_22-04-28,2026-08-24
1.0,1.0,0.9663461538461539,0.9353348729792148,0.3652173913043478,1.0,1.0,1.0,1.0,0.0,1.0,0.558837890625,-0.0399169921875,0.0556640625,-0.016082763671875,-0.0069580078125,0.001556396484375,A,0,2026-08-24_22-04-28,2026-08-24
1.0,0.9116719242902208,0.9711538461538461,0.9722863741339491,0.5130434782608696,1.0,1.0,1.0,1.0,0.0,1.0,0.5621337890625,-0.0364990234375,0.060791015625,-0.01361083984375,-0.01007080078125,-0.000518798828125,A,0,2026-08-24_22-04-28,2026-08-24
1.0,0.9369085173501577,0.9791666666666666,0.976905311778291,0.5043478260869565,1.0,1.0,1.0,1.0,0.0,1.0,0.5592041015625,-0.0340576171875,0.0494384765625,-0.016265869140625,-0.011474609375,-0.001434326171875,A,0,2026-08-24_22-04-28,2026-08-24
1.0,0.9861198738170347,0.9599358974358975,0.9445727482678984,0.5304347826086957,1.0,1.0,1.0,1.0,0.0,1.0,0.55517578125,-0.0301513671875,0.0489501953125,-0.015594482421875,-0.00787353515625,-0.00152587890625,A,0,2026-08-24_22-04-28,2026-08-24
1.0,0.9608832807570978,0.9743589743589743,0.9722863741339491,0.5391304347826087,1.0,1.0,1.0,1.0,0.0,1.0,0.5592041015625,-0.0267333984375,0.0513916015625,-0.015716552734375,-0.00775146484375,0.0023193359375,A,0,2026-08-24_22-04-28,2026-08-24
1.0,0.9533123028391167,0.9599358974358975,0.8891454965357968,0.3739130434782609,1.0,1.0,1.0,1.0,0.0,1.0,0.554931640625,-0.0242919921875,0.0543212890625,-0.0159912109375,-0.00543212890625,0.005126953125,A,0,2026-08-24_22-04-28,2026-08-24
1.0,1.0,0.9887820512820513,0.976905311778291,0.45217391304347826,1.0,1.0,1.0,1.0,0.0,1.0,0.556640625,-0.0294189453125,0.0543212890625,-0.015106201171875,-0.008453369140625,0.0079345703125,A,0,2026-08-24_22-04-28,2026-08-24
1.0,1.0,0.9759615384615384,0.9168591224018475,0.391304347826087,1.0,1.0,1.0,1.0,0.0,1.0,0.55419921875,-0.03564453125,0.0511474609375,-0.016937255859375,-0.007904052734375,0.006683349609375,A,0,2026-08-24_22-04-28,2026-08-24
1.0,1.0,0.9871794871794872,0.9214780600461894,0.3391304347826087,1.0,1.0,1.0,1.0,0.0,1.0,0.5596923828125,-0.03369140625,0.0517578125,-0.018310546875,-0.00732421875,0.006591796875,A,0,2026-08-24_22-04-28,2026-08-24
1.0,0.9735015772870662,0.9759615384615384,0.976905311778291,0.3826086956521739,1.0,1.0,1.0,1.0,0.0,1.0,0.5576171875,-0.03662109375,0.0494384765625,-0.016510009765625,-0.0057373046875,0.0064697265625,A,0,2026-08-24_22-04-28,2026-08-24
1.0,0.9873817034700315,0.9439102564102564,0.9722863741339491,0.4260869565217391,1.0,1.0,1.0,1.0,0.0,1.0,0.5595703125,-0.03857421875,0.0540771484375,-0.016632080078125,-0.005889892578125,0.00494384765625,A,0,2026-08-24_22-04-28,2026-08-24
1.0,0.9798107255520505,0.9599358974358975,0.8568129330254042,0.40869565217391307,1.0,1.0,1.0,1.0,0.0,1.0,0.5606689453125,-0.0391845703125,0.0577392578125,-0.017059326171875,-0.00518798828125,0.003143310546875,A,0,2026-08-24_22-04-28,2026-08-24
1.0,0.9735015772870662,0.9599358974358975,0.9353348729792148,0.5130434782608696,1.0,1.0,1.0,1.0,0.0,1.0,0.5599365234375,-0.04150390625,0.0545654296875,-0.013824462890625,-0.00518798828125,0.00433349609375,A,0,2026-08-24_22-04-28,2026-08-24
1.0,0.9697160883280758,0.9711538461538461,0.976905311778291,0.40869565217391307,1.0,1.0,1.0,1.0,0.0,1.0,0.5587158203125,-0.0390625,0.057373046875,-0.01409912109375,-0.005615234375,0.00225830078125,A,0,2026-08-24_22-04-28,2026-08-24
1.0,0.9697160883280758,0.9631410256410257,1.0,0.48695652173913045,1.0,1.0,1.0,1.0,0.0,1.0,0.558837890625,-0.03857421875,0.05322265625,-0.014190673828125,-0.00634765625,0.00177001953125,A,0,2026-08-24_22-04-28,2026-08-24
1.0,0.9936908517350158,0.969551282051282,0.9076212471131639,0.3826086956521739,1.0,1.0,1.0,1.0,0.0,1.0,0.5606689453125,-0.03515625,0.0595703125,-0.0133056640625,-0.010406494140625,0.00152587890625,A,0,2026-08-24_22-04-28,2026-08-24
1.0,1.0,0.9615384615384616,0.930715935334873,0.3565217391304348,1.0,1.0,1.0,1.0,0.0,1.0,0.555908203125,-0.036865234375,0.0587158203125,-0.0150146484375,-0.006744384765625,0.0013427734375,A,0,2026-08-24_22-04-28,2026-08-24
1.0,0.9949526813880126,0.969551282051282,0.8706697459584296,0.5391304347826087,1.0,1.0,1.0,1.0,0.0,1.0,0.55615234375,-0.0352783203125,0.05517578125,-0.01348876953125,-0.00640869140625,0.001556396484375,A,0,2026-08-24_22-04-28,2026-08-24
1.0,0.9735015772870662,1.0,0.930715935334873,0.5130434782608696,1.0,1.0,1.0,1.0,0.0,1.0,0.55615234375,-0.0341796875,0.060302734375,-0.01446533203125,-0.009124755859375,0.001708984375,A,0,2026-08-24_22-04-28,2026-08-24
1.0,0.9735015772870662,0.9599358974358975,0.9907621247113164,0.4434782608695652,1.0,1.0,1.0,1.0,0.0,1.0,0.5550537109375,-0.034423828125,0.0614013671875,-0.011016845703125,-0.012969970703125,0.003997802734375,A,0,2026-08-24_22-04-28,2026-08-24
1.0,0.9709779179810726,0.9887820512820513,0.8937644341801386,0.5652173913043478,1.0,1.0,1.0,1.0,0.0,1.0,0.555908203125,-0.0308837890625,0.0614013671875,-0.009033203125,-0.011749267578125,0.003997802734375,A,0,2026-08-24_22-04-28,2026-08-24
1.0,0.9747634069400631,0.9439102564102564,1.0,0.5652173913043478,1.0,1.0,1.0,1.0,0.0,1.0,0.5567626953125,-0.03662109375,0.060302734375,-0.010040283203125,-0.00933837890625,0.003143310546875,A,0,2026-08-24_22-04-28,2026-08-24
1.0,0.9848580441640379,0.9823717948717948,0.9076212471131639,0.5217391304347826,1.0,1.0,1.0,1.0,0.0,1.0,0.5615234375,-0.0364990234375,0.0548095703125,-0.01177978515625,-0.010498046875,0.00384521484375,A,0,2026-08-24_22-04-28,2026-08-24
1.0,0.9810725552050473,0.9391025641025641,0.8429561200923787,0.4260869565217391,1.0,1.0,1.0,1.0,0.0,1.0,0.555908203125,-0.0341796875,0.0594482421875,-0.00982666015625,-0.013031005859375,0.00494384765625,A,0,2026-08-24_22-04-28,2026-08-24
1.0,0.9848580441640379,0.9439102564102564,0.9122401847575058,1.0,1.0,1.0,1.0,1.0,0.0,1.0,0.5543212890625,-0.0389404296875,0.0494384765625,-0.0157470703125,-0.00885009765625,0.001861572265625,A,0,2026-08-24_22-04-28,2026-08-24
1.0,1.0,0.9551282051282052,0.8937644341801386,1.0,1.0,1.0,1.0,1.0,0.0,1.0,0.5579833984375,-0.0341796875,0.052734375,-0.013427734375,-0.006011962890625,0.002410888671875,A,0,2026-08-24_22-04-28,2026-08-24
1.0,0.9735015772870662,0.9599358974358975,0.9815242494226328,1.0,1.0,1.0,1.0,1.0,0.0,1.0,0.561767578125,-0.0341796875,0.0506591796875,-0.014404296875,-0.008697509765625,0.001983642578125,A,0,2026-08-24_22-04-28,2026-08-24
1.0,0.9848580441640379,0.9647435897435898,0.8752886836027713,0.4260869565217391,1.0,1.0,1.0,1.0,0.0,1.0,0.5565185546875,-0.0330810546875,0.0452880859375,-0.01593017578125,-0.0084228515625,0.00213623046875,A,0,2026-08-24_22-04-28,2026-08-24
1.0,0.9570977917981073,0.9839743589743589,1.0,0.4782608695652174,1.0,1.0,1.0,1.0,0.0,1.0,0.5552978515625,0.0447998046875,0.0660400390625,-0.010467529296875,-0.012054443359375,0.011260986328125,A,1,2026-08-24_22-04-28,2026-08-24
1.0,0.9621451104100947,0.9839743589743589,0.9676674364896074,0.34782608695652173,1.0,1.0,1.0,1.0,0.0,1.0,0.552978515625,0.05322265625,0.06787109375,-0.0145263671875,-0.007110595703125,0.012420654296875,A,1,2026-08-24_22-04-28,2026-08-24
1.0,0.9406940063091482,0.9471153846153846,0.9445727482678984,0.3739130434782609,1.0,1.0,1.0,1.0,0.0,1.0,0.5550537109375,0.0430908203125,0.0584716796875,-0.008575439453125,-0.006072998046875,0.01300048828125,A,1,2026-08-24_22-04-28,2026-08-24
1.0,0.9533123028391167,0.9807692307692307,0.976905311778291,0.3565217391304348,1.0,1.0,1.0,1.0,0.0,1.0,0.5526123046875,0.0416259765625,0.064208984375,-0.0078125,-0.0032958984375,0.01025390625,A,1,2026-08-24_22-04-28,2026-08-24
1.0,0.9533123028391167,0.9599358974358975,1.0,0.4260869565217391,1.0,1.0,1.0,1.0,0.0,1.0,0.551513671875,0.0428466796875,0.0692138671875,-0.0042724609375,-0.0009765625,0.011810302734375,A,1,2026-08-24_22-04-28,2026-08-24
1.0,0.9583596214511041,0.9631410256410257,0.9491916859122402,0.3826086956521739,1.0,1.0,1.0,1.0,0.0,1.0,0.5579833984375,0.042236328125,0.0755615234375,-0.00274658203125,-0.002593994140625,0.013214111328125,A,1,2026-08-24_22-04-28,2026-08-24
1.0,0.9558359621451105,0.9599358974358975,0.9584295612009238,0.41739130434782606,1.0,1.0,1.0,1.0,0.0,1.0,0.55322265625,0.0382080078125,0.081787109375,0.002288818359375,-0.00152587890625,0.012359619140625,A,1,2026-08-24_22-04-28,2026-08-24
1.0,0.967192429022082,0.9775641025641025,0.976905311778291,0.34782608695652173,1.0,1.0,1.0,1.0,0.0,1.0,0.5594482421875,0.0391845703125,0.080810546875,-0.006317138671875,-0.00701904296875,0.00445556640625,A,1,2026-08-24_22-04-28,2026-08-24
1.0,0.950788643533123,0.9871794871794872,0.9861431870669746,0.391304347826087,1.0,1.0,1.0,1.0,0.0,1.0,0.5599365234375,0.0457763671875,0.078125,-0.011627197265625,-0.011749267578125,0.001373291015625,A,1,2026-08-24_22-04-28,2026-08-24
1.0,0.9621451104100947,0.9583333333333334,0.9907621247113164,0.34782608695652173,1.0,1.0,1.0,1.0,0.0,1.0,0.5570068359375,0.05029296875,0.073486328125,-0.01361083984375,-0.012237548828125,0.002685546875,A,1,2026-08-24_22-04-28,2026-08-24
1.0,0.9533123028391167,0.9823717948717948,0.9491916859122402,0.40869565217391307,1.0,1.0,1.0,1.0,0.0,1.0,0.56005859375,0.049560546875,0.070556640625,-0.01531982421875,-0.012664794921875,0.002227783203125,A,1,2026-08-24_22-04-28,2026-08-24
1.0,0.9646687697160883,0.9807692307692307,0.9260969976905312,0.40869565217391307,1.0,1.0,1.0,1.0,0.0,1.0,0.552490234375,0.052001953125,0.064697265625,-0.013427734375,-0.011077880859375,0.004638671875,A,1,2026-08-24_22-04-28,2026-08-24
1.0,0.9646687697160883,0.9871794871794872,0.9722863741339491,0.45217391304347826,1.0,1.0,1.0,1.0,0.0,1.0,0.557373046875,0.0513916015625,0.065673828125,-0.008270263671875,-0.010711669921875,0.0054931640625,A,1,2026-08-24_22-04-28,2026-08-24
1.0,0.9533123028391167,0.9903846153846154,0.9722863741339491,0.41739130434782606,1.0,1.0,1.0,1.0,0.0,1.0,0.5538330078125,0.05029296875,0.0665283203125,-0.012115478515625,-0.00653076171875,0.00469970703125,A,1,2026-08-24_22-04-28,2026-08-24
1.0,0.9621451104100947,0.967948717948718,0.9953810623556582,0.34782608695652173,1.0,1.0,1.0,1.0,0.0,1.0,0.5606689453125,0.0533447265625,0.067138671875,-0.006500244140625,-0.004669189453125,0.00775146484375,A,1,2026-08-24_22-04-28,2026-08-24
1.0,0.9533123028391167,0.9631410256410257,0.9815242494226328,0.4434782608695652,1.0,1.0,1.0,1.0,0.0,1.0,0.555908203125,0.044921875,0.0684814453125,-0.00665283203125,-0.00396728515625,0.007293701171875,A,1,2026-08-24_22-04-28,2026-08-24
1.0,0.9621451104100947,0.9615384615384616,0.9168591224018475,0.391304347826087,1.0,1.0,1.0,1.0,0.0,1.0,0.5531005859375,0.0479736328125,0.0772705078125,-0.001495361328125,-0.0054931640625,0.009918212890625,A,1,2026-08-24_22-04-28,2026-08-24
1.0,0.9621451104100947,0.9599358974358975,0.9214780600461894,0.5130434782608696,1.0,1.0,1.0,1.0,0.0,1.0,0.5556640625,0.0447998046875,0.0670166015625,0.019989013671875,-0.0081787109375,0.017425537109375,A,1,2026-08-24_22-04-28,2026-08-24
1.0,0.950788643533123,0.9903846153846154,0.976905311778291,0.4608695652173913,1.0,1.0,1.0,1.0,0.0,1.0,0.5550537109375,0.0218505859375,0.064208984375,-0.001861572265625,-0.007415771484375,0.002716064453125,A,1,2026-08-24_22-04-28,2026-08-24
1.0,0.9495268138801262,0.967948717948718,0.9122401847575058,0.45217391304347826,1.0,1.0,1.0,1.0,0.0,1.0,0.5546875,0.046630859375,0.07373046875,-0.014739990234375,-0.012451171875,-0.0037841796875,A,1,2026-08-24_22-04-28,2026-08-24
1.0,0.9533123028391167,0.9839743589743589,0.9861431870669746,1.0,1.0,1.0,1.0,1.0,0.0,1.0,0.5533447265625,0.039306640625,0.0697021484375,-0.022064208984375,-0.008636474609375,0.002838134765625,A,1,2026-08-24_22-04-28,2026-08-24
1.0,0.9533123028391167,0.9583333333333334,0.9353348729792148,1.0,1.0,1.0,1.0,1.0,0.0,1.0,0.5552978515625,0.0474853515625,0.065673828125,-0.02728271484375,-0.0057373046875,0.005035400390625,A,1,2026-08-24_22-04-28,2026-08-24
1.0,0.9381703470031546,0.9583333333333334,1.0,1.0,1.0,1.0,1.0,1.0,0.0,1.0,0.556884765625,0.051025390625,0.0712890625,-0.019439697265625,-0.0052490234375,0.00347900390625,A,1,2026-08-24_22-04-28,2026-08-24
1.0,0.9356466876971609,0.9775641025641025,0.9861431870669746,0.9304347826086956,1.0,1.0,1.0,1.0,0.0,1.0,0.55810546875,0.0538330078125,0.075439453125,-0.01153564453125,-0.00811767578125,0.003875732421875,A,1,2026-08-24_22-04-28,2026-08-24
1.0,0.9369085173501577,0.9839743589743589,0.9353348729792148,0.9043478260869565,1.0,1.0,1.0,1.0,0.0,1.0,0.5584716796875,0.0509033203125,0.0687255859375,-0.006683349609375,-0.008392333984375,0.0042724609375,A,1,2026-08-24_22-04-28,2026-08-24
1.0,0.9192429022082019,0.9583333333333334,0.9076212471131639,0.9652173913043478,1.0,1.0,1.0,1.0,0.0,1.0,0.5576171875,0.0472412109375,0.0716552734375,-0.01263427734375,-0.0045166015625,0.001953125,A,1,2026-08-24_22-04-28,2026-08-24
1.0,0.9242902208201893,0.9615384615384616,1.0,1.0,1.0,1.0,1.0,1.0,0.0,1.0,0.5546875,0.0457763671875,0.07275390625,-0.02020263671875,-0.007659912109375,0.002044677734375,A,1,2026-08-24_22-04-28,2026-08-24
1.0,0.9394321766561514,0.9807692307692307,0.976905311778291,1.0,1.0,1.0,1.0,1.0,0.0,1.0,0.55615234375,0.049072265625,0.0723876953125,-0.023468017578125,-0.010406494140625,0.0057373046875,A,1,2026-08-24_22-04-28,2026-08-24
1.0,0.9192429022082019,0.969551282051282,0.9122401847575058,1.0,1.0,1.0,1.0,1.0,0.0,1.0,0.5555419921875,0.04736328125,0.070556640625,-0.015594482421875,-0.009765625,0.007232666015625,A,1,2026-08-24_22-04-28,2026-08-24
1.0,0.9242902208201893,0.9583333333333334,0.9722863741339491,1.0,1.0,1.0,1.0,1.0,0.0,1.0,0.5556640625,0.0447998046875,0.0711669921875,-0.014862060546875,-0.007843017578125,0.003143310546875,A,1,2026-08-24_22-04-28,2026-08-24
1.0,0.9230283911671924,0.9631410256410257,0.9722863741339491,1.0,1.0,1.0,1.0,1.0,0.0,1.0,0.554931640625,0.048583984375,0.0758056640625,-0.008270263671875,-0.011474609375,0.00469970703125,A,1,2026-08-24_22-04-28,2026-08-24
1.0,0.9268138801261829,0.9743589743589743,0.8752886836027713,1.0,1.0,1.0,1.0,1.0,0.0,1.0,0.554931640625,0.041015625,0.0728759765625,-0.007232666015625,-0.0123291015625,0.0064697265625,A,1,2026-08-24_22-04-28,2026-08-24
1.0,0.910410094637224,0.9807692307692307,0.9122401847575058,0.40869565217391307,1.0,1.0,1.0,1.0,0.0,1.0,0.5577392578125,0.0411376953125,0.07275390625,-0.016510009765625,-0.011199951171875,0.000274658203125,A,1,2026-08-24_22-04-28,2026-08-24
1.0,0.9369085173501577,0.9759615384615384,1.0,0.40869565217391307,1.0,1.0,1.0,1.0,0.0,1.0,0.5579833984375,0.0501708984375,0.072021484375,-0.01812744140625,-0.01507568359375,0.00067138671875,A,1,2026-08-24_22-04-28,2026-08-24
1.0,0.9305993690851735,0.9759615384615384,0.930715935334873,0.4608695652173913,1.0,1.0,1.0,1.0,0.0,1.0,0.555908203125,0.049072265625,0.0662841796875,-0.017822265625,-0.01483154296875,0.004425048828125,A,1,2026-08-24_22-04-28,2026-08-24
1.0,0.934384858044164,0.9599358974358975,0.9214780600461894,0.48695652173913045,1.0,1.0,1.0,1.0,0.0,1.0,0.55517578125,0.048583984375,0.0670166015625,-0.020294189453125,-0.01129150390625,0.004058837890625,A,1,2026-08-24_22-04-28,2026-08-24
1.0,0.9230283911671924,0.9631410256410257,0.9445727482678984,0.4,1.0,1.0,1.0,1.0,0.0,1.0,0.55712890625,0.0535888671875,0.0697021484375,-0.0194091796875,-0.00994873046875,0.003326416015625,A,1,2026-08-24_22-04-28,2026-08-24
1.0,0.9268138801261829,0.9711538461538461,0.9445727482678984,0.4260869565217391,1.0,1.0,1.0,1.0,0.0,1.0,0.556884765625,0.05322265625,0.068603515625,-0.01458740234375,-0.010986328125,0.006988525390625,A,1,2026-08-24_22-04-28,2026-08-24
1.0,0.934384858044164,0.9599358974358975,0.9445727482678984,0.4782608695652174,1.0,1.0,1.0,1.0,0.0,1.0,0.5570068359375,0.0494384765625,0.0682373046875,-0.010040283203125,-0.00933837890625,0.01092529296875,A,1,2026-08-24_22-04-28,2026-08-24
1.0,0.9331230283911672,0.9775641025641025,0.976905311778291,0.4782608695652174,1.0,1.0,1.0,1.0,0.0,1.0,0.5614013671875,0.0428466796875,0.0780029296875,-0.00970458984375,-0.008636474609375,0.010711669921875,A,1,2026-08-24_22-04-28,2026-08-24
0.973109243697479,1.0,0.9823717948717948,1.0,0.9652173913043478,1.0,1.0,1.0,1.0,1.0,1.0,0.5447998046875,0.035400390625,0.095703125,-0.01959228515625,-0.025787353515625,-0.001922607421875,A,2,2026-08-24_22-04-28,2026-08-24
1.0,1.0,1.0,0.9491916859122402,0.991304347826087,1.0,1.0,1.0,1.0,1.0,1.0,0.534912109375,0.057861328125,0.101806640625,-0.026580810546875,-0.02685546875,-0.002410888671875,A,2,2026-08-24_22-04-28,2026-08-24
1.0,1.0,0.967948717948718,1.0,1.0,1.0,1.0,1.0,1.0,1.0,1.0,0.5447998046875,0.05224609375,0.0958251953125,-0.015289306640625,-0.03155517578125,0.0006103515625,A,2,2026-08-24_22-04-28,2026-08-24
1.0,1.0,1.0,1.0,1.0,1.0,1.0,1.0,1.0,1.0,1.0,0.544921875,0.0633544921875,0.0875244140625,-0.014068603515625,-0.02520751953125,-0.000823974609375,A,2,2026-08-24_22-04-28,2026-08-24
1.0,1.0,0.9951923076923077,1.0,0.9565217391304348,1.0,1.0,1.0,1.0,1.0,1.0,0.559814453125,0.0496826171875,0.075927734375,0.00042724609375,-0.008087158203125,0.003143310546875,A,2,2026-08-24_22-04-28,2026-08-24
0.9764705882352941,0.9596214511041009,1.0,1.0,1.0,1.0,1.0,1.0,1.0,1.0,1.0,0.56396484375,0.061767578125,0.09375,-0.003936767578125,0.00537109375,0.00848388671875,A,2,2026-08-24_22-04-28,2026-08-24
1.0,0.9646687697160883,0.9839743589743589,1.0,1.0,1.0,1.0,1.0,1.0,1.0,1.0,0.561767578125,0.0347900390625,0.0941162109375,-0.003692626953125,0.015869140625,0.01104736328125,A,2,2026-08-24_22-04-28,2026-08-24
0.9529411764705882,0.9722397476340694,1.0,0.9861431870669746,1.0,1.0,1.0,1.0,1.0,1.0,1.0,0.55859375,0.043212890625,0.1092529296875,-0.005126953125,0.02630615234375,0.008270263671875,A,2,2026-08-24_22-04-28,2026-08-24
1.0,0.9924290220820189,0.9839743589743589,1.0,1.0,1.0,1.0,1.0,1.0,1.0,1.0,0.55859375,0.0374755859375,0.120849609375,-0.0062255859375,0.01373291015625,0.00189208984375,A,2,2026-08-24_22-04-28,2026-08-24
1.0,1.0,1.0,1.0,1.0,1.0,1.0,1.0,1.0,1.0,1.0,0.5596923828125,0.041015625,0.1180419921875,-0.005096435546875,0.001373291015625,-0.005584716796875,A,2,2026-08-24_22-04-28,2026-08-24
0.9932773109243698,0.9369085173501577,0.9903846153846154,1.0,1.0,1.0,1.0,1.0,1.0,1.0,1.0,0.5546875,0.041748046875,0.1065673828125,-0.007171630859375,-0.008544921875,-0.01251220703125,A,2,2026-08-24_22-04-28,2026-08-24
0.9949579831932773,0.9533123028391167,0.9935897435897436,0.976905311778291,1.0,1.0,1.0,1.0,1.0,1.0,1.0,0.5487060546875,0.0535888671875,0.09765625,-0.011444091796875,-0.016357421875,-0.014678955078125,A,2,2026-08-24_22-04-28,2026-08-24
1.0,0.9646687697160883,0.9935897435897436,1.0,1.0,1.0,1.0,1.0,1.0,1.0,1.0,0.5501708984375,0.0596923828125,0.092529296875,-0.01171875,-0.01251220703125,-0.01654052734375,A,2,2026-08-24_22-04-28,2026-08-24
0.9478991596638655,0.9735015772870662,0.9711538461538461,0.9030023094688222,1.0,1.0,1.0,1.0,1.0,1.0,1.0,0.548583984375,0.0738525390625,0.093017578125,-0.01690673828125,-0.00738525390625,-0.01287841796875,A,2,2026-08-24_22-04-28,2026-08-24
1.0,0.9381703470031546,0.9615384615384616,0.9676674364896074,1.0,1.0,1.0,1.0,1.0,1.0,1.0,0.5457763671875,0.0684814453125,0.0936279296875,-0.008148193359375,-0.0059814453125,-0.00592041015625,A,2,2026-08-24_22-04-28,2026-08-24
1.0,0.9558359621451105,1.0,0.9815242494226328,1.0,1.0,1.0,1.0,1.0,1.0,1.0,0.543212890625,0.06884765625,0.099853515625,-0.018585205078125,0.0003662109375,-0.004425048828125,A,2,2026-08-24_22-04-28,2026-08-24
0.9932773109243698,0.9470031545741325,0.9775641025641025,1.0,1.0,1.0,1.0,1.0,1.0,1.0,1.0,0.544677734375,0.06884765625,0.10986328125,-0.019287109375,-0.0020751953125,0.00213623046875,A,2,2026-08-24_22-04-28,2026-08-24
0.9546218487394958,1.0,1.0,0.9907621247113164,1.0,1.0,1.0,1.0,1.0,1.0,1.0,0.54541015625,0.06982421875,0.11376953125,-0.01324462890625,-0.003326416015625,0.01129150390625,A,2,2026-08-24_22-04-28,2026-08-24
0.9899159663865547,1.0,0.9807692307692307,0.9953810623556582,0.9826086956521739,1.0,1.0,1.0,1.0,1.0,1.0,0.5462646484375,0.05322265625,0.1156005859375,-0.01336669921875,-0.0079345703125,0.011871337890625,A,2,2026-08-24_22-04-28,2026-08-24
1.0,1.0,0.9951923076923077,1.0,0.9826086956521739,1.0,1.0,1.0,1.0,1.0,1.0,0.5496826171875,0.0570068359375,0.117431640625,-0.01873779296875,-0.01287841796875,0.00567626953125,A,2,2026-08-24_22-04-28,2026-08-24
0.9714285714285714,0.9596214511041009,0.9599358974358975,0.8706697459584296,0.9652173913043478,1.0,1.0,1.0,1.0,1.0,1.0,0.547119140625,0.0555419921875,0.1104736328125,-0.020233154296875,-0.0177001953125,0.006011962890625,A,2,2026-08-24_22-04-28,2026-08-24
1.0,1.0,0.9855769230769231,1.0,0.9304347826086956,1.0,1.0,1.0,1.0,1.0,1.0,0.55615234375,0.06005859375,0.109130859375,-0.01922607421875,-0.024078369140625,0.007110595703125,A,2,2026-08-24_22-04-28,2026-08-24
1.0,1.0,0.9855769230769231,1.0,0.9826086956521739,1.0,1.0,1.0,1.0,1.0,1.0,0.55224609375,0.0526123046875,0.10400390625,-0.0087890625,-0.024078369140625,0.010223388671875,A,2,2026-08-24_22-04-28,2026-08-24
0.9781512605042016,0.9533123028391167,1.0,1.0,1.0,1.0,1.0,1.0,1.0,1.0,1.0,0.5546875,0.042724609375,0.099609375,-0.012420654296875,-0.025115966796875,0.00653076171875,A,2,2026-08-24_22-04-28,2026-08-24
1.0,0.9735015772870662,0.9503205128205128,0.9030023094688222,1.0,1.0,1.0,1.0,1.0,1.0,1.0,0.5440673828125,0.0439453125,0.09033203125,-0.01373291015625,-0.022552490234375,0.002105712890625,A,2,2026-08-24_22-04-28,2026-08-24
1.0,0.9154574132492114,1.0,0.8845265588914549,1.0,1.0,1.0,1.0,1.0,1.0,1.0,0.5533447265625,0.045166015625,0.094482421875,-0.01617431640625,-0.018768310546875,-0.002227783203125,A,2,2026-08-24_22-04-28,2026-08-24
0.9563025210084034,0.97602523659306,0.9615384615384616,0.976905311778291,0.9391304347826087,1.0,1.0,1.0,1.0,1.0,1.0,0.548828125,0.0577392578125,0.089111328125,-0.014068603515625,-0.021087646484375,0.000335693359375,A,2,2026-08-24_22-04-28,2026-08-24
1.0,0.9533123028391167,0.9903846153846154,0.976905311778291,1.0,1.0,1.0,1.0,1.0,1.0,1.0,0.5491943359375,0.0555419921875,0.088623046875,-0.0015869140625,-0.016998291015625,0.00323486328125,A,2,2026-08-24_22-04-28,2026-08-24
1.0,1.0,0.9775641025641025,1.0,1.0,1.0,1.0,1.0,1.0,1.0,1.0,0.551513671875,0.058349609375,0.0899658203125,-0.000335693359375,-0.012603759765625,0.0045166015625,A,2,2026-08-24_22-04-28,2026-08-24
0.9613445378151261,0.9495268138801262,1.0,1.0,1.0,1.0,1.0,1.0,1.0,1.0,1.0,0.55517578125,0.0472412109375,0.094482421875,-0.0091552734375,-0.012847900390625,0.002166748046875,A,2,2026-08-24_22-04-28,2026-08-24
0.9949579831932773,0.9533123028391167,0.9583333333333334,0.953810623556582,1.0,1.0,1.0,1.0,1.0,1.0,1.0,0.5479736328125,0.0684814453125,0.0947265625,-0.01861572265625,-0.01495361328125,0.004119873046875,A,2,2026-08-24_22-04-28,2026-08-24
0.9781512605042016,0.9444794952681388,0.9791666666666666,1.0,0.9304347826086956,1.0,1.0,1.0,1.0,1.0,1.0,0.551513671875,0.0540771484375,0.0924072265625,-0.016754150390625,-0.01171875,0.007415771484375,A,2,2026-08-24_22-04-28,2026-08-24
1.0,0.9596214511041009,0.9807692307692307,1.0,1.0,1.0,1.0,1.0,1.0,1.0,1.0,0.5509033203125,0.064208984375,0.10107421875,-0.02484130859375,-0.012298583984375,0.006683349609375,A,2,2026-08-24_22-04-28,2026-08-24
1.0,0.934384858044164,0.9807692307692307,0.9722863741339491,1.0,1.0,1.0,1.0,1.0,1.0,1.0,0.5460205078125,0.0640869140625,0.1033935546875,-0.003143310546875,-0.01397705078125,0.01495361328125,A,2,2026-08-24_22-04-28,2026-08-24
1.0,0.9596214511041009,0.9647435897435898,1.0,0.9565217391304348,1.0,1.0,1.0,1.0,1.0,1.0,0.5538330078125,0.0540771484375,0.0992431640625,-0.01220703125,-0.01666259765625,0.010498046875,A,2,2026-08-24_22-04-28,2026-08-24
0.9831932773109243,0.9533123028391167,0.9871794871794872,0.9907621247113164,0.9826086956521739,1.0,1.0,1.0,1.0,1.0,1.0,0.551025390625,0.064453125,0.098388671875,-0.011138916015625,-0.023468017578125,0.01275634765625,A,2,2026-08-24_22-04-28,2026-08-24
0.9663865546218487,0.950788643533123,0.9759615384615384,0.9861431870669746,1.0,1.0,1.0,1.0,1.0,1.0,1.0,0.555908203125,0.0457763671875,0.08740234375,-0.01385498046875,-0.020965576171875,0.01025390625,A,2,2026-08-24_22-04-28,2026-08-24
0.973109243697479,0.9457413249211356,0.9855769230769231,0.976905311778291,0.8782608695652174,1.0,1.0,1.0,1.0,1.0,1.0,0.5496826171875,0.0582275390625,0.0855712890625,-0.01385498046875,-0.01934814453125,0.0069580078125,A,2,2026-08-24_22-04-28,2026-08-24
0.9882352941176471,0.9596214511041009,0.9647435897435898,0.9030023094688222,0.9652173913043478,1.0,1.0,1.0,1.0,1.0,1.0,0.552001953125,0.048828125,0.0833740234375,-0.000518798828125,-0.01324462890625,0.009674072265625,A,2,2026-08-24_22-04-28,2026-08-24
0.9714285714285714,0.9369085173501577,1.0,1.0,0.9826086956521739,1.0,1.0,1.0,1.0,1.0,1.0,0.5587158203125,0.0450439453125,0.0833740234375,-0.01312255859375,-0.01171875,0.00250244140625,A,2,2026-08-24_22-04-28,2026-08-24
1.0,1.0,0.9759615384615384,0.9815242494226328,0.8782608695652174,1.0,1.0,1.0,1.0,0.0,0.0,0.5499267578125,0.052490234375,0.07861328125,-0.016845703125,-0.008514404296875,0.007598876953125,A,3,2026-08-24_22-04-28,2026-08-24
1.0,1.0,0.9903846153846154,1.0,0.8173913043478261,1.0,1.0,1.0,1.0,0.0,0.0,0.552490234375,0.055419921875,0.0760498046875,-0.000946044921875,-0.004364013671875,0.013519287109375,A,3,2026-08-24_22-04-28,2026-08-24
1.0,1.0,0.9631410256410257,0.953810623556582,0.8521739130434782,1.0,1.0,1.0,1.0,0.0,0.0,0.5478515625,0.0447998046875,0.0740966796875,0.009857177734375,-0.00299072265625,0.018035888671875,A,3,2026-08-24_22-04-28,2026-08-24
0.9882352941176471,0.9974763406940063,0.967948717948718,1.0,0.8521739130434782,1.0,1.0,1.0,1.0,0.0,0.0,0.5479736328125,0.030517578125,0.0703125,0.02777099609375,-0.0028076171875,0.018218994140625,A,3,2026-08-24_22-04-28,2026-08-24
0.9781512605042016,1.0,0.9951923076923077,1.0,0.808695652173913,1.0,1.0,1.0,1.0,0.0,0.0,0.5533447265625,0.029296875,0.075439453125,-0.004608154296875,-0.000732421875,0.003387451171875,A,3,2026-08-24_22-04-28,2026-08-24
0.9915966386554622,1.0,0.9855769230769231,0.9630484988452656,0.8260869565217391,1.0,1.0,1.0,1.0,0.0,0.0,0.545654296875,0.0482177734375,0.078125,-0.006439208984375,-0.00433349609375,0.005767822265625,A,3,2026-08-24_22-04-28,2026-08-24
1.0,1.0,0.9903846153846154,1.0,0.808695652173913,1.0,1.0,1.0,1.0,0.0,0.0,0.5506591796875,0.0450439453125,0.0758056640625,-0.011505126953125,-0.001922607421875,0.009857177734375,A,3,2026-08-24_22-04-28,2026-08-24
1.0,0.9936908517350158,1.0,1.0,0.9130434782608695,1.0,1.0,1.0,1.0,0.0,0.0,0.5516357421875,0.03466796875,0.0806884765625,0.00567626953125,-0.020751953125,0.00579833984375,A,3,2026-08-24_22-04-28,2026-08-24
1.0,0.9646687697160883,0.9455128205128205,1.0,0.8782608695652174,1.0,1.0,1.0,1.0,0.0,0.0,0.5438232421875,0.1380615234375,0.0272216796875,0.053741455078125,0.015228271484375,0.02978515625,A,3,2026-08-24_22-04-28,2026-08-24
1.0,0.9697160883280758,0.9551282051282052,0.9722863741339491,0.8782608695652174,1.0,1.0,1.0,1.0,0.0,0.0,0.5286865234375,0.010986328125,0.07177734375,0.004638671875,-0.020965576171875,0.001129150390625,A,3,2026-08-24_22-04-28,2026-08-24
1.0,0.9798107255520505,0.9807692307692307,1.0,0.8347826086956521,1.0,1.0,1.0,1.0,0.0,0.0,0.5643310546875,0.0537109375,0.0703125,-0.001434326171875,-0.0181884765625,0.004547119140625,A,3,2026-08-24_22-04-28,2026-08-24
1.0,0.9697160883280758,0.9599358974358975,1.0,0.9043478260869565,1.0,1.0,1.0,1.0,0.0,0.0,0.5615234375,0.052978515625,0.068603515625,-0.00946044921875,-0.007781982421875,0.008209228515625,A,3,2026-08-24_22-04-28,2026-08-24
1.0,0.97602523659306,0.9823717948717948,1.0,0.8173913043478261,1.0,1.0,1.0,1.0,0.0,0.0,0.5618896484375,0.04638671875,0.0682373046875,-0.017608642578125,-0.0079345703125,0.010406494140625,A,3,2026-08-24_22-04-28,2026-08-24
1.0,0.9911671924290221,1.0,0.9953810623556582,0.8173913043478261,1.0,1.0,1.0,1.0,0.0,0.0,0.5595703125,0.0457763671875,0.0736083984375,-0.0224609375,-0.003631591796875,0.00970458984375,A,3,2026-08-24_22-04-28,2026-08-24
1.0,0.9848580441640379,0.9791666666666666,1.0,0.8347826086956521,1.0,1.0,1.0,1.0,0.0,0.0,0.563232421875,0.046875,0.0748291015625,-0.01434326171875,-0.003021240234375,0.009796142578125,A,3,2026-08-24_22-04-28,2026-08-24
1.0,0.9747634069400631,0.9823717948717948,1.0,0.9304347826086956,1.0,1.0,1.0,1.0,0.0,0.0,0.5677490234375,0.0330810546875,0.0718994140625,-0.002227783203125,-0.00457763671875,0.0084228515625,A,3,2026-08-24_22-04-28,2026-08-24
1.0,0.9861198738170347,0.9871794871794872,1.0,0.8260869565217391,1.0,1.0,1.0,1.0,0.0,0.0,0.56201171875,0.0361328125,0.0689697265625,-0.016448974609375,-0.0052490234375,-0.002349853515625,A,3,2026-08-24_22-04-28,2026-08-24
1.0,0.9798107255520505,0.9599358974358975,1.0,0.8521739130434782,1.0,1.0,1.0,1.0,0.0,0.0,0.558837890625,0.052001953125,0.069091796875,-0.010040283203125,-0.00250244140625,0.001007080078125,A,3,2026-08-24_22-04-28,2026-08-24
1.0,0.9848580441640379,0.9807692307692307,0.9907621247113164,0.9043478260869565,1.0,1.0,1.0,1.0,0.0,0.0,0.5592041015625,0.0511474609375,0.0679931640625,-0.003662109375,-0.0020751953125,0.005767822265625,A,3,2026-08-24_22-04-28,2026-08-24
1.0,1.0,0.9615384615384616,1.0,0.8695652173913043,1.0,1.0,1.0,1.0,0.0,0.0,0.557861328125,0.0438232421875,0.06591796875,-0.001190185546875,-0.0059814453125,0.003662109375,A,3,2026-08-24_22-04-28,2026-08-24
1.0,0.9722397476340694,0.9711538461538461,0.9953810623556582,0.808695652173913,1.0,1.0,1.0,1.0,0.0,0.0,0.5555419921875,0.0413818359375,0.06494140625,-0.009674072265625,-0.00250244140625,-0.001434326171875,A,3,2026-08-24_22-04-28,2026-08-24
1.0,0.9709779179810726,0.9599358974358975,1.0,0.8347826086956521,1.0,1.0,1.0,1.0,0.0,0.0,0.55517578125,0.0498046875,0.06982421875,-0.009735107421875,-0.00311279296875,-0.001251220703125,A,3,2026-08-24_22-04-28,2026-08-24
1.0,0.9596214511041009,0.9935897435897436,1.0,0.7217391304347827,1.0,1.0,1.0,1.0,0.0,0.0,0.5540771484375,0.050537109375,0.0716552734375,-0.01348876953125,-0.007598876953125,0.00115966796875,A,3,2026-08-24_22-04-28,2026-08-24
1.0,0.9646687697160883,0.9855769230769231,1.0,0.7913043478260869,1.0,1.0,1.0,1.0,0.0,0.0,0.5501708984375,0.05224609375,0.07177734375,-0.014251708984375,-0.00457763671875,0.0023193359375,A,3,2026-08-24_22-04-28,2026-08-24
1.0,0.9533123028391167,0.9791666666666666,1.0,0.8434782608695652,1.0,1.0,1.0,1.0,0.0,0.0,0.5572509765625,0.054931640625,0.0760498046875,-0.008697509765625,-0.005859375,0.005706787109375,A,3,2026-08-24_22-04-28,2026-08-24
1.0,0.9533123028391167,0.9599358974358975,1.0,0.8608695652173913,1.0,1.0,1.0,1.0,0.0,0.0,0.5567626953125,0.0458984375,0.07421875,-0.00494384765625,-0.008880615234375,0.005157470703125,A,3,2026-08-24_22-04-28,2026-08-24
1.0,0.9533123028391167,0.9839743589743589,0.976905311778291,0.8695652173913043,1.0,1.0,1.0,1.0,0.0,0.0,0.5528564453125,0.048583984375,0.0745849609375,-0.01513671875,-0.0106201171875,0.00323486328125,A,3,2026-08-24_22-04-28,2026-08-24
1.0,0.9583596214511041,0.9855769230769231,0.9815242494226328,0.8434782608695652,1.0,1.0,1.0,1.0,0.0,0.0,0.5518798828125,0.051025390625,0.06982421875,-0.016571044921875,-0.011474609375,0.007476806640625,A,3,2026-08-24_22-04-28,2026-08-24
1.0,0.9709779179810726,0.9855769230769231,1.0,0.8173913043478261,1.0,1.0,1.0,1.0,0.0,0.0,0.550537109375,0.0467529296875,0.072021484375,-0.019195556640625,-0.0076904296875,0.008056640625,A,3,2026-08-24_22-04-28,2026-08-24
1.0,0.9659305993690852,0.9807692307692307,1.0,0.8173913043478261,1.0,1.0,1.0,1.0,0.0,0.0,0.5518798828125,0.0513916015625,0.078125,-0.010589599609375,-0.007110595703125,0.009918212890625,A,3,2026-08-24_22-04-28,2026-08-24
1.0,0.9331230283911672,0.967948717948718,0.976905311778291,0.8695652173913043,1.0,1.0,1.0,1.0,0.0,0.0,0.551025390625,0.048583984375,0.075927734375,0.006439208984375,-0.00897216796875,0.013519287109375,A,3,2026-08-24_22-04-28,2026-08-24
1.0,0.9533123028391167,0.9631410256410257,0.9861431870669746,0.8173913043478261,1.0,1.0,1.0,1.0,0.0,0.0,0.5543212890625,0.023681640625,0.0712890625,0.002227783203125,-0.009857177734375,0.006195068359375,A,3,2026-08-24_22-04-28,2026-08-24
1.0,0.9697160883280758,0.9839743589743589,0.9815242494226328,0.808695652173913,1.0,1.0,1.0,1.0,0.0,0.0,0.5592041015625,0.0484619140625,0.0748291015625,-0.01422119140625,-0.013336181640625,0.00018310546875,A,3,2026-08-24_22-04-28,2026-08-24
1.0,0.9596214511041009,0.9599358974358975,0.9260969976905312,0.8173913043478261,1.0,1.0,1.0,1.0,0.0,0.0,0.5509033203125,0.0465087890625,0.0716552734375,-0.012542724609375,-0.01202392578125,0.008026123046875,A,3,2026-08-24_22-04-28,2026-08-24
1.0,0.9444794952681388,0.9871794871794872,0.9630484988452656,0.8173913043478261,1.0,1.0,1.0,1.0,0.0,0.0,0.5606689453125,0.0389404296875,0.0665283203125,-0.0224609375,-0.0123291015625,0.003570556640625,A,3,2026-08-24_22-04-28,2026-08-24
1.0,0.9533123028391167,0.9711538461538461,1.0,0.8173913043478261,1.0,1.0,1.0,1.0,0.0,0.0,0.549560546875,0.0584716796875,0.06396484375,-0.015716552734375,-0.008270263671875,0.00457763671875,A,3,2026-08-24_22-04-28,2026-08-24
1.0,0.9533123028391167,0.9807692307692307,0.9953810623556582,0.8173913043478261,1.0,1.0,1.0,1.0,0.0,0.0,0.5606689453125,0.0450439453125,0.0709228515625,-0.007781982421875,-0.0068359375,0.005035400390625,A,3,2026-08-24_22-04-28,2026-08-24
1.0,0.9596214511041009,0.9743589743589743,1.0,0.8,1.0,1.0,1.0,1.0,0.0,0.0,0.5531005859375,0.0478515625,0.0689697265625,-0.00848388671875,-0.012237548828125,0.004669189453125,A,3,2026-08-24_22-04-28,2026-08-24
1.0,0.9482649842271293,0.9887820512820513,1.0,0.8173913043478261,1.0,1.0,1.0,1.0,0.0,0.0,0.5506591796875,0.0498046875,0.0643310546875,-0.009918212890625,-0.0040283203125,0.005279541015625,A,3,2026-08-24_22-04-28,2026-08-24
1.0,0.9520504731861199,1.0,0.9491916859122402,0.8173913043478261,1.0,1.0,1.0,1.0,0.0,0.0,0.560546875,0.0406494140625,0.071044921875,-0.016937255859375,-0.00140380859375,0.002593994140625,A,3,2026-08-24_22-04-28,2026-08-24
0.9630252100840336,0.9848580441640379,0.9855769230769231,0.9815242494226328,0.41739130434782606,1.0,1.0,1.0,1.0,1.0,0.0,0.552490234375,0.042724609375,0.0926513671875,-0.016754150390625,-0.012237548828125,0.011444091796875,A,4,2026-08-24_22-04-28,2026-08-24
1.0,0.9520504731861199,0.9967948717948718,0.9815242494226328,0.3391304347826087,1.0,1.0,1.0,1.0,1.0,0.0,0.5550537109375,0.0462646484375,0.0885009765625,-0.01861572265625,-0.015106201171875,0.011383056640625,A,4,2026-08-24_22-04-28,2026-08-24
0.9882352941176471,0.9520504731861199,0.9919871794871795,1.0,0.40869565217391307,1.0,1.0,1.0,1.0,1.0,0.0,0.552001953125,0.037841796875,0.0860595703125,-0.01495361328125,-0.00946044921875,0.009674072265625,A,4,2026-08-24_22-04-28,2026-08-24
0.9495798319327731,0.9583596214511041,0.967948717948718,1.0,0.3391304347826087,1.0,1.0,1.0,1.0,1.0,0.0,0.553466796875,0.0450439453125,0.094970703125,-0.0155029296875,-0.007080078125,0.004638671875,A,4,2026-08-24_22-04-28,2026-08-24
0.9747899159663865,0.9621451104100947,0.9983974358974359,1.0,0.391304347826087,1.0,1.0,1.0,1.0,1.0,0.0,0.555419921875,0.0531005859375,0.0955810546875,-0.0150146484375,-0.010040283203125,0.0069580078125,A,4,2026-08-24_22-04-28,2026-08-24
0.946218487394958,0.9596214511041009,0.9935897435897436,1.0,0.3826086956521739,1.0,1.0,1.0,1.0,1.0,0.0,0.5557861328125,0.0458984375,0.0936279296875,-0.01593017578125,-0.008636474609375,0.0091552734375,A,4,2026-08-24_22-04-28,2026-08-24
0.973109243697479,0.97602523659306,1.0,1.0,0.41739130434782606,1.0,1.0,1.0,1.0,1.0,0.0,0.554931640625,0.0419921875,0.090087890625,-0.01678466796875,-0.00738525390625,0.00738525390625,A,4,2026-08-24_22-04-28,2026-08-24
0.9478991596638655,0.9634069400630915,0.9967948717948718,0.976905311778291,0.40869565217391307,1.0,1.0,1.0,1.0,1.0,0.0,0.555908203125,0.044921875,0.089599609375,-0.015655517578125,-0.009246826171875,0.004730224609375,A,4,2026-08-24_22-04-28,2026-08-24
1.0,0.9810725552050473,0.9951923076923077,1.0,0.4,1.0,1.0,1.0,1.0,1.0,0.0,0.5518798828125,0.04345703125,0.08154296875,-0.01336669921875,-0.0052490234375,0.006103515625,A,4,2026-08-24_22-04-28,2026-08-24
0.9815126050420168,0.9684542586750788,0.9871794871794872,1.0,0.3565217391304348,1.0,1.0,1.0,1.0,1.0,0.0,0.5584716796875,0.0399169921875,0.081787109375,-0.01397705078125,-0.000701904296875,0.00347900390625,A,4,2026-08-24_22-04-28,2026-08-24
0.9949579831932773,0.9596214511041009,1.0,1.0,0.3391304347826087,1.0,1.0,1.0,1.0,1.0,0.0,0.55615234375,0.04638671875,0.089111328125,-0.011993408203125,-0.001495361328125,0.004913330078125,A,4,2026-08-24_22-04-28,2026-08-24
0.946218487394958,0.9482649842271293,1.0,1.0,0.391304347826087,1.0,1.0,1.0,1.0,1.0,0.0,0.5556640625,0.0433349609375,0.0909423828125,-0.009490966796875,-0.00445556640625,0.006378173828125,A,4,2026-08-24_22-04-28,2026-08-24
0.9949579831932773,0.9596214511041009,0.9807692307692307,1.0,0.3826086956521739,1.0,1.0,1.0,1.0,1.0,0.0,0.5548095703125,0.0439453125,0.0906982421875,-0.007537841796875,-0.005157470703125,0.004791259765625,A,4,2026-08-24_22-04-28,2026-08-24
0.946218487394958,0.950788643533123,0.9647435897435898,1.0,0.4782608695652174,1.0,1.0,1.0,1.0,1.0,0.0,0.5540771484375,0.0467529296875,0.0853271484375,-0.0074462890625,-0.00494384765625,0.004638671875,A,4,2026-08-24_22-04-28,2026-08-24
0.9613445378151261,0.9533123028391167,0.9647435897435898,0.976905311778291,0.3739130434782609,1.0,1.0,1.0,1.0,1.0,0.0,0.55419921875,0.043212890625,0.091064453125,-0.017822265625,-0.006134033203125,0.001220703125,A,4,2026-08-24_22-04-28,2026-08-24
1.0,0.9621451104100947,0.9775641025641025,0.976905311778291,0.40869565217391307,1.0,1.0,1.0,1.0,1.0,0.0,0.5484619140625,0.0472412109375,0.0927734375,-0.015869140625,-0.005615234375,0.004730224609375,A,4,2026-08-24_22-04-28,2026-08-24
0.9647058823529412,0.9697160883280758,0.9903846153846154,1.0,0.4,1.0,1.0,1.0,1.0,1.0,0.0,0.5498046875,0.0465087890625,0.09033203125,-0.01507568359375,-0.002593994140625,0.0059814453125,A,4,2026-08-24_22-04-28,2026-08-24
0.9966386554621849,0.9709779179810726,1.0,1.0,0.3652173913043478,1.0,1.0,1.0,1.0,1.0,0.0,0.54931640625,0.04345703125,0.102294921875,-0.006439208984375,-0.003753662109375,0.011016845703125,A,4,2026-08-24_22-04-28,2026-08-24
0.9680672268907563,0.9533123028391167,0.9775641025641025,1.0,0.3739130434782609,1.0,1.0,1.0,1.0,1.0,0.0,0.5535888671875,0.0467529296875,0.1024169921875,-0.00439453125,-0.0072021484375,0.01104736328125,A,4,2026-08-24_22-04-28,2026-08-24
0.9899159663865547,0.9684542586750788,1.0,1.0,0.391304347826087,1.0,1.0,1.0,1.0,1.0,0.0,0.5546875,0.0362548828125,0.10009765625,-0.01214599609375,-0.007080078125,0.00732421875,A,4,2026-08-24_22-04-28,2026-08-24
0.9899159663865547,0.9570977917981073,0.9935897435897436,1.0,0.2608695652173913,1.0,1.0,1.0,1.0,1.0,0.0,0.55517578125,0.0443115234375,0.0968017578125,-0.01519775390625,-0.010528564453125,0.006866455078125,A,4,2026-08-24_22-04-28,2026-08-24
0.9882352941176471,0.9533123028391167,0.9791666666666666,0.8799076212471132,0.41739130434782606,1.0,1.0,1.0,1.0,1.0,0.0,0.5543212890625,0.0428466796875,0.09375,-0.01409912109375,-0.01251220703125,0.01123046875,A,4,2026-08-24_22-04-28,2026-08-24
0.9478991596638655,0.9608832807570978,0.9871794871794872,0.9815242494226328,0.391304347826087,1.0,1.0,1.0,1.0,1.0,0.0,0.5531005859375,0.052001953125,0.0882568359375,-0.006561279296875,-0.010955810546875,0.014129638671875,A,4,2026-08-24_22-04-28,2026-08-24
0.9596638655462185,0.9608832807570978,0.9583333333333334,1.0,0.30434782608695654,1.0,1.0,1.0,1.0,1.0,0.0,0.548828125,0.0712890625,0.08251953125,0.022857666015625,-0.007415771484375,0.028533935546875,A,4,2026-08-24_22-04-28,2026-08-24
0.973109243697479,0.9533123028391167,1.0,0.9953810623556582,0.3565217391304348,1.0,1.0,1.0,1.0,1.0,0.0,0.5545654296875,0.0340576171875,0.0748291015625,0.03497314453125,0.0003662109375,0.031005859375,A,4,2026-08-24_22-04-28,2026-08-24
0.9663865546218487,0.967192429022082,0.9919871794871795,0.9630484988452656,0.26956521739130435,1.0,1.0,1.0,1.0,1.0,0.0,0.5596923828125,0.0211181640625,0.0767822265625,-0.003753662109375,0.0081787109375,0.013031005859375,A,4,2026-08-24_22-04-28,2026-08-24
0.9831932773109243,0.9709779179810726,0.9935897435897436,1.0,0.30434782608695654,1.0,1.0,1.0,1.0,1.0,0.0,0.5516357421875,0.0364990234375,0.0882568359375,-0.02099609375,0.007537841796875,0.01214599609375,A,4,2026-08-24_22-04-28,2026-08-24
1.0,0.9735015772870662,1.0,1.0,0.34782608695652173,1.0,1.0,1.0,1.0,1.0,0.0,0.552490234375,0.0323486328125,0.0941162109375,-0.0269775390625,0.006622314453125,0.0203857421875,A,4,2026-08-24_22-04-28,2026-08-24
0.9613445378151261,0.9533123028391167,0.9743589743589743,1.0,0.4,1.0,1.0,1.0,1.0,1.0,0.0,0.5599365234375,0.024658203125,0.107666015625,-0.02362060546875,-0.00030517578125,0.0179443359375,A,4,2026-08-24_22-04-28,2026-08-24
0.9680672268907563,0.9596214511041009,1.0,0.976905311778291,0.3565217391304348,1.0,1.0,1.0,1.0,1.0,0.0,0.557861328125,0.016845703125,0.1090087890625,-0.017425537109375,-0.01116943359375,0.003662109375,A,4,2026-08-24_22-04-28,2026-08-24
0.973109243697479,0.9457413249211356,1.0,1.0,0.3391304347826087,1.0,1.0,1.0,1.0,1.0,0.0,0.5533447265625,0.03515625,0.09521484375,-0.020660400390625,-0.01519775390625,-0.00567626953125,A,4,2026-08-24_22-04-28,2026-08-24
0.946218487394958,0.9697160883280758,0.9855769230769231,0.9861431870669746,0.3826086956521739,1.0,1.0,1.0,1.0,1.0,0.0,0.55322265625,0.0513916015625,0.0948486328125,-0.014190673828125,-0.0133056640625,-0.001007080078125,A,4,2026-08-24_22-04-28,2026-08-24
0.9764705882352941,0.9659305993690852,0.9871794871794872,1.0,0.3739130434782609,1.0,1.0,1.0,1.0,1.0,0.0,0.556640625,0.04443359375,0.09033203125,-0.014373779296875,-0.008880615234375,0.002166748046875,A,4,2026-08-24_22-04-28,2026-08-24
0.9815126050420168,0.9697160883280758,1.0,1.0,0.3739130434782609,1.0,1.0,1.0,1.0,1.0,0.0,0.55419921875,0.040771484375,0.0975341796875,-0.009918212890625,-0.007720947265625,0.0029296875,A,4,2026-08-24_22-04-28,2026-08-24
0.973109243697479,0.9545741324921135,0.9935897435897436,1.0,0.40869565217391307,1.0,1.0,1.0,1.0,1.0,0.0,0.5528564453125,0.03857421875,0.0943603515625,-0.00604248046875,-0.00665283203125,0.0045166015625,A,4,2026-08-24_22-04-28,2026-08-24
0.9697478991596639,0.9596214511041009,1.0,1.0,0.391304347826087,1.0,1.0,1.0,1.0,1.0,0.0,0.551513671875,0.0316162109375,0.0947265625,-0.0106201171875,-0.006072998046875,0.003662109375,A,4,2026-08-24_22-04-28,2026-08-24
0.9983193277310924,0.9533123028391167,0.9663461538461539,1.0,0.3739130434782609,1.0,1.0,1.0,1.0,1.0,0.0,0.555419921875,0.0347900390625,0.0963134765625,-0.01409912109375,-0.005889892578125,0.005767822265625,A,4,2026-08-24_22-04-28,2026-08-24
0.9647058823529412,0.9533123028391167,0.9823717948717948,0.9584295612009238,0.3217391304347826,1.0,1.0,1.0,1.0,1.0,0.0,0.553955078125,0.041015625,0.0963134765625,-0.011810302734375,-0.007293701171875,0.009185791015625,A,4,2026-08-24_22-04-28,2026-08-24
0.973109243697479,0.9570977917981073,0.9775641025641025,0.9953810623556582,0.3565217391304348,1.0,1.0,1.0,1.0,1.0,0.0,0.5523681640625,0.036376953125,0.09423828125,-0.01092529296875,-0.0062255859375,0.00567626953125,A,4,2026-08-24_22-04-28,2026-08-24
0.9613445378151261,0.9545741324921135,0.9839743589743589,0.9445727482678984,0.3565217391304348,1.0,1.0,1.0,1.0,1.0,0.0,0.54931640625,0.03857421875,0.08642578125,-0.011810302734375,-0.003204345703125,0.00091552734375,A,4,2026-08-24_22-04-28,2026-08-24
0.946218487394958,1.0,0.9807692307692307,0.9815242494226328,0.034782608695652174,1.0,1.0,1.0,1.0,1.0,0.0,0.5535888671875,0.0928955078125,0.0501708984375,-0.008453369140625,-0.0111083984375,0.00677490234375,A,0,2026-08-24_22-04-28,2026-08-24
0.9899159663865547,0.9974763406940063,0.9583333333333334,0.8891454965357968,0.02608695652173913,1.0,1.0,1.0,1.0,1.0,0.0,0.55029296875,0.0799560546875,0.041015625,-0.01251220703125,-0.011199951171875,0.002105712890625,A,0,2026-08-24_22-04-28,2026-08-24
0.9495798319327731,1.0,0.9407051282051282,0.9815242494226328,0.008695652173913044,1.0,1.0,1.0,1.0,1.0,0.0,0.5469970703125,0.088623046875,0.0447998046875,-0.015289306640625,-0.0111083984375,-0.0037841796875,A,0,2026-08-24_22-04-28,2026-08-24
0.984873949579832,1.0,0.9583333333333334,0.9260969976905312,0.0782608695652174,1.0,1.0,1.0,1.0,1.0,0.0,0.5477294921875,0.0941162109375,0.043701171875,-0.004547119140625,-0.00634765625,-0.000152587890625,A,0,2026-08-24_22-04-28,2026-08-24
0.9714285714285714,1.0,0.9599358974358975,0.9122401847575058,0.02608695652173913,1.0,1.0,1.0,1.0,1.0,0.0,0.545166015625,0.0887451171875,0.0467529296875,0.00128173828125,-0.0086669921875,0.001220703125,A,0,2026-08-24_22-04-28,2026-08-24
0.9647058823529412,1.0,0.9439102564102564,0.976905311778291,0.06086956521739131,1.0,1.0,1.0,1.0,1.0,0.0,0.55126953125,0.086669921875,0.0487060546875,-0.000885009765625,-0.017181396484375,-0.0023193359375,A,0,2026-08-24_22-04-28,2026-08-24
0.946218487394958,0.9823343848580441,0.9487179487179487,0.953810623556582,0.11304347826086956,1.0,1.0,1.0,1.0,1.0,0.0,0.5528564453125,0.08984375,0.043212890625,-0.026885986328125,-0.017974853515625,-0.00885009765625,A,0,2026-08-24_22-04-28,2026-08-24
1.0,1.0,0.9631410256410257,1.0,0.06956521739130435,1.0,1.0,1.0,1.0,1.0,0.0,0.5479736328125,0.1162109375,0.043701171875,-0.032196044921875,-0.019134521484375,-0.00299072265625,A,0,2026-08-24_22-04-28,2026-08-24
0.9563025210084034,1.0,0.9342948717948718,0.9861431870669746,0.02608695652173913,1.0,1.0,1.0,1.0,1.0,0.0,0.55322265625,0.115234375,0.04296875,-0.0311279296875,-0.008514404296875,0.008575439453125,A,0,2026-08-24_22-04-28,2026-08-24
0.9680672268907563,1.0,0.9487179487179487,0.976905311778291,0.0782608695652174,1.0,1.0,1.0,1.0,1.0,0.0,0.551513671875,0.1129150390625,0.046875,-0.014678955078125,-0.01287841796875,0.013763427734375,A,0,2026-08-24_22-04-28,2026-08-24
0.9747899159663865,1.0,0.9391025641025641,0.930715935334873,0.02608695652173913,1.0,1.0,1.0,1.0,1.0,0.0,0.550048828125,0.1015625,0.03515625,-0.002532958984375,-0.01458740234375,0.011932373046875,A,0,2026-08-24_22-04-28,2026-08-24
0.946218487394958,1.0,0.9294871794871795,0.9353348729792148,0.09565217391304348,1.0,1.0,1.0,1.0,1.0,0.0,0.5535888671875,0.0926513671875,0.0311279296875,-0.00201416015625,-0.010040283203125,0.00592041015625,A,0,2026-08-24_22-04-28,2026-08-24
0.9613445378151261,1.0,0.9647435897435898,0.9584295612009238,0.0,1.0,1.0,1.0,1.0,1.0,0.0,0.5572509765625,0.0950927734375,0.038330078125,-0.008331298828125,-0.014617919921875,0.003509521484375,A,0,2026-08-24_22-04-28,2026-08-24
0.973109243697479,1.0,0.9599358974358975,0.9861431870669746,0.12173913043478261,1.0,1.0,1.0,1.0,1.0,0.0,0.552978515625,0.0950927734375,0.0379638671875,-0.017669677734375,-0.007110595703125,0.0064697265625,A,0,2026-08-24_22-04-28,2026-08-24
0.9478991596638655,1.0,0.9407051282051282,0.9491916859122402,0.0,1.0,1.0,1.0,1.0,1.0,0.0,0.556396484375,0.085205078125,0.0396728515625,-0.022674560546875,-0.004913330078125,0.0078125,A,0,2026-08-24_22-04-28,2026-08-24
0.9630252100840336,1.0,0.9567307692307693,0.976905311778291,0.16521739130434782,1.0,1.0,1.0,1.0,1.0,0.0,0.55078125,0.0848388671875,0.040283203125,-0.01983642578125,-0.007598876953125,0.00927734375,A,0,2026-08-24_22-04-28,2026-08-24
0.9932773109243698,1.0,0.9663461538461539,1.0,0.008695652173913044,1.0,1.0,1.0,1.0,1.0,0.0,0.5521240234375,0.081787109375,0.041259765625,-0.01300048828125,-0.004730224609375,0.004974365234375,A,0,2026-08-24_22-04-28,2026-08-24
0.9764705882352941,1.0,0.9439102564102564,0.9491916859122402,0.11304347826086956,1.0,1.0,1.0,1.0,1.0,0.0,0.555908203125,0.08251953125,0.040283203125,-0.011749267578125,-0.005950927734375,-0.004302978515625,A,0,2026-08-24_22-04-28,2026-08-24
0.984873949579832,1.0,0.9471153846153846,0.976905311778291,0.13043478260869565,1.0,1.0,1.0,1.0,1.0,0.0,0.5521240234375,0.093994140625,0.039794921875,-0.01239013671875,-0.009429931640625,-0.0050048828125,A,0,2026-08-24_22-04-28,2026-08-24
0.9428571428571428,1.0,0.9423076923076923,0.9030023094688222,0.10434782608695652,1.0,1.0,1.0,1.0,1.0,0.0,0.5509033203125,0.100341796875,0.0386962890625,-0.014923095703125,-0.007354736328125,-0.0040283203125,A,0,2026-08-24_22-04-28,2026-08-24
0.9899159663865547,1.0,0.9567307692307693,0.9491916859122402,0.1391304347826087,1.0,1.0,1.0,1.0,1.0,0.0,0.548828125,0.1019287109375,0.0406494140625,-0.01568603515625,-0.0050048828125,-0.0008544921875,A,0,2026-08-24_22-04-28,2026-08-24
0.9546218487394958,1.0,0.9599358974358975,0.9815242494226328,0.0,1.0,1.0,1.0,1.0,1.0,0.0,0.5479736328125,0.099853515625,0.0404052734375,-0.011749267578125,-0.00762939453125,0.002044677734375,A,0,2026-08-24_22-04-28,2026-08-24
0.9630252100840336,1.0,0.9375,0.8706697459584296,0.13043478260869565,1.0,1.0,1.0,1.0,1.0,0.0,0.55078125,0.1060791015625,0.04296875,-0.009521484375,-0.006256103515625,0.005584716796875,A,0,2026-08-24_22-04-28,2026-08-24
0.973109243697479,1.0,0.9487179487179487,0.9076212471131639,0.017391304347826087,1.0,1.0,1.0,1.0,1.0,0.0,0.5484619140625,0.09814453125,0.0450439453125,-0.0091552734375,-0.004913330078125,0.00616455078125,A,0,2026-08-24_22-04-28,2026-08-24
0.9932773109243698,0.9772870662460568,0.9551282051282052,0.976905311778291,0.06086956521739131,1.0,1.0,1.0,1.0,1.0,0.0,0.5462646484375,0.099853515625,0.0439453125,-0.0079345703125,-0.008514404296875,0.008758544921875,A,0,2026-08-24_22-04-28,2026-08-24
0.9563025210084034,1.0,0.9246794871794872,0.9815242494226328,0.043478260869565216,1.0,1.0,1.0,1.0,1.0,0.0,0.5465087890625,0.0977783203125,0.048828125,-0.019866943359375,-0.010284423828125,0.009552001953125,A,0,2026-08-24_22-04-28,2026-08-24
0.9815126050420168,1.0,0.9487179487179487,0.930715935334873,0.09565217391304348,1.0,1.0,1.0,1.0,1.0,0.0,0.5443115234375,0.098388671875,0.0460205078125,-0.017364501953125,-0.011444091796875,0.011016845703125,A,0,2026-08-24_22-04-28,2026-08-24
0.973109243697479,1.0,0.9407051282051282,0.9353348729792148,0.0782608695652174,1.0,1.0,1.0,1.0,1.0,0.0,0.546142578125,0.091796875,0.045166015625,-0.016571044921875,-0.012603759765625,0.0123291015625,A,0,2026-08-24_22-04-28,2026-08-24
0.9815126050420168,0.8662460567823344,0.9262820512820513,0.9353348729792148,0.06086956521739131,1.0,1.0,1.0,1.0,1.0,0.0,0.55078125,0.0843505859375,0.0380859375,-0.01116943359375,-0.012908935546875,0.00909423828125,A,0,2026-08-24_22-04-28,2026-08-24
0.9680672268907563,0.886435331230284,0.9246794871794872,0.9353348729792148,0.0,1.0,1.0,1.0,1.0,1.0,0.0,0.5501708984375,0.0828857421875,0.034423828125,-0.010284423828125,-0.012237548828125,0.007049560546875,A,0,2026-08-24_22-04-28,2026-08-24
0.9764705882352941,0.8725552050473186,0.9615384615384616,1.0,0.034782608695652174,1.0,1.0,1.0,1.0,1.0,0.0,0.5537109375,0.08056640625,0.0316162109375,-0.010650634765625,-0.014923095703125,0.002471923828125,A,0,2026-08-24_22-04-28,2026-08-24
0.946218487394958,0.8561514195583596,0.9230769230769231,0.976905311778291,0.043478260869565216,1.0,1.0,1.0,1.0,1.0,0.0,0.553955078125,0.0845947265625,0.035400390625,-0.02392578125,-0.00555419921875,-0.002105712890625,A,0,2026-08-24_22-04-28,2026-08-24
1.0,0.877602523659306,0.9583333333333334,1.0,0.09565217391304348,1.0,1.0,1.0,1.0,1.0,0.0,0.5572509765625,0.0872802734375,0.03369140625,-0.039825439453125,0.00091552734375,-0.0087890625,A,0,2026-08-24_22-04-28,2026-08-24
0.9882352941176471,0.8763406940063091,0.9519230769230769,0.9907621247113164,0.0,1.0,1.0,1.0,1.0,1.0,0.0,0.552734375,0.1063232421875,0.0477294921875,-0.0303955078125,0.000640869140625,-0.005340576171875,A,0,2026-08-24_22-04-28,2026-08-24
0.9714285714285714,0.8750788643533123,0.9423076923076923,0.9076212471131639,0.043478260869565216,1.0,1.0,1.0,1.0,1.0,0.0,0.5552978515625,0.0972900390625,0.0374755859375,-0.013519287109375,-0.00262451171875,-0.00103759765625,A,0,2026-08-24_22-04-28,2026-08-24
0.9831932773109243,0.8687697160883281,0.9551282051282052,0.8799076212471132,0.10434782608695652,1.0,1.0,1.0,1.0,1.0,0.0,0.554443359375,0.099609375,0.049560546875,-0.01544189453125,-0.006683349609375,-0.001861572265625,A,0,2026-08-24_22-04-28,2026-08-24
0.9831932773109243,0.8725552050473186,0.9503205128205128,0.9445727482678984,0.06086956521739131,1.0,1.0,1.0,1.0,1.0,0.0,0.55029296875,0.10693359375,0.046875,0.0008544921875,-0.012725830078125,0.0050048828125,A,0,2026-08-24_22-04-28,2026-08-24
0.9563025210084034,0.8637223974763407,0.9342948717948718,0.9630484988452656,0.06956521739130435,1.0,1.0,1.0,1.0,1.0,0.0,0.5535888671875,0.0888671875,0.038818359375,-0.013397216796875,-0.0140380859375,0.00213623046875,A,0,2026-08-24_22-04-28,2026-08-24
0.9815126050420168,0.8763406940063091,0.9599358974358975,0.9815242494226328,0.008695652173913044,1.0,1.0,1.0,1.0,1.0,0.0,0.5511474609375,0.1092529296875,0.0384521484375,-0.023193359375,-0.016937255859375,0.0013427734375,A,0,2026-08-24_22-04-28,2026-08-24
0.9478991596638655,0.9280757097791799,0.9423076923076923,0.9491916859122402,0.08695652173913043,1.0,1.0,1.0,1.0,1.0,0.0,0.54833984375,0.1048583984375,0.0391845703125,-0.021270751953125,-0.010162353515625,0.00830078125,A,0,2026-08-24_22-04-28,2026-08-24
1.0,0.8763406940063091,0.9647435897435898,0.9907621247113164,0.0,1.0,1.0,1.0,1.0,1.0,0.0,0.5616455078125,0.067626953125,0.036865234375,-0.010711669921875,-0.020172119140625,0.002716064453125,A,1,2026-08-24_22-04-28,2026-08-24
1.0,0.9129337539432176,0.9439102564102564,0.9907621247113164,0.0,1.0,1.0,1.0,1.0,1.0,0.0,0.5615234375,0.0760498046875,0.0340576171875,-0.02001953125,-0.01885986328125,0.003753662109375,A,1,2026-08-24_22-04-28,2026-08-24
0.984873949579832,0.8662460567823344,0.9391025641025641,1.0,0.0,1.0,1.0,1.0,1.0,1.0,0.0,0.5595703125,0.0616455078125,0.023681640625,-0.021148681640625,-0.02178955078125,0.00152587890625,A,1,2026-08-24_22-04-28,2026-08-24
1.0,0.8927444794952681,0.9599358974358975,0.9953810623556582,0.0,1.0,1.0,1.0,1.0,1.0,0.0,0.5582275390625,0.0836181640625,0.0263671875,-0.025054931640625,-0.0181884765625,0.002685546875,A,1,2026-08-24_22-04-28,2026-08-24
1.0,0.9003154574132493,0.9743589743589743,1.0,0.0,1.0,1.0,1.0,1.0,1.0,0.0,0.5595703125,0.0706787109375,0.02099609375,-0.010986328125,-0.010498046875,0.006072998046875,A,1,2026-08-24_22-04-28,2026-08-24
1.0,0.8839116719242902,0.9615384615384616,1.0,0.008695652173913044,1.0,1.0,1.0,1.0,1.0,0.0,0.5631103515625,0.0654296875,0.02587890625,-0.011260986328125,-0.012420654296875,0.003387451171875,A,1,2026-08-24_22-04-28,2026-08-24
1.0,0.8889589905362776,0.9647435897435898,1.0,0.017391304347826087,1.0,1.0,1.0,1.0,1.0,0.0,0.5572509765625,0.078369140625,0.0289306640625,-0.00701904296875,-0.01348876953125,0.00494384765625,A,1,2026-08-24_22-04-28,2026-08-24
1.0,0.8750788643533123,0.9583333333333334,1.0,0.0,1.0,1.0,1.0,1.0,1.0,0.0,0.5596923828125,0.06884765625,0.02978515625,-0.00286865234375,-0.011749267578125,0.00830078125,A,1,2026-08-24_22-04-28,2026-08-24
1.0,0.8788643533123028,0.9342948717948718,0.976905311778291,0.0,1.0,1.0,1.0,1.0,1.0,0.0,0.551025390625,0.0618896484375,0.0262451171875,-0.002655029296875,-0.008819580078125,0.005767822265625,A,1,2026-08-24_22-04-28,2026-08-24
1.0,0.8725552050473186,0.969551282051282,1.0,0.034782608695652174,1.0,1.0,1.0,1.0,1.0,0.0,0.556884765625,0.0611572265625,0.031494140625,-0.01336669921875,-0.008758544921875,-0.000213623046875,A,1,2026-08-24_22-04-28,2026-08-24
1.0,0.8750788643533123,0.9743589743589743,1.0,0.043478260869565216,1.0,1.0,1.0,1.0,1.0,0.0,0.5535888671875,0.0721435546875,0.0352783203125,-0.009246826171875,-0.006561279296875,0.000640869140625,A,1,2026-08-24_22-04-28,2026-08-24
1.0,0.8750788643533123,0.9599358974358975,0.9953810623556582,0.08695652173913043,1.0,1.0,1.0,1.0,1.0,0.0,0.5535888671875,0.07275390625,0.02685546875,-0.011322021484375,-0.00238037109375,0.0028076171875,A,1,2026-08-24_22-04-28,2026-08-24
1.0,0.886435331230284,0.9647435897435898,0.9630484988452656,0.06086956521739131,1.0,1.0,1.0,1.0,1.0,0.0,0.5615234375,0.0675048828125,0.0335693359375,-0.0123291015625,-0.009796142578125,0.00177001953125,A,1,2026-08-24_22-04-28,2026-08-24
1.0,0.8788643533123028,0.9599358974358975,0.976905311778291,0.1391304347826087,1.0,1.0,1.0,1.0,1.0,0.0,0.5576171875,0.06982421875,0.0286865234375,-0.011993408203125,-0.01055908203125,0.00396728515625,A,1,2026-08-24_22-04-28,2026-08-24
1.0,0.8586750788643533,0.9599358974358975,0.976905311778291,0.008695652173913044,1.0,1.0,1.0,1.0,1.0,0.0,0.5565185546875,0.069580078125,0.0260009765625,-0.013946533203125,-0.00543212890625,0.00238037109375,A,1,2026-08-24_22-04-28,2026-08-24
1.0,0.877602523659306,0.9342948717948718,0.976905311778291,0.11304347826086956,1.0,1.0,1.0,1.0,1.0,0.0,0.551513671875,0.0745849609375,0.0296630859375,-0.009368896484375,-0.00439453125,0.0040283203125,A,1,2026-08-24_22-04-28,2026-08-24
1.0,0.8889589905362776,0.9935897435897436,1.0,0.0,1.0,1.0,1.0,1.0,1.0,0.0,0.555419921875,0.0540771484375,0.0379638671875,-0.004638671875,-0.01092529296875,0.001983642578125,A,1,2026-08-24_22-04-28,2026-08-24
1.0,0.8965299684542587,0.9487179487179487,1.0,0.02608695652173913,1.0,1.0,1.0,1.0,1.0,0.0,0.5540771484375,0.0587158203125,0.0374755859375,-0.011077880859375,-0.011199951171875,-0.0059814453125,A,1,2026-08-24_22-04-28,2026-08-24
1.0,0.885173501577287,0.9663461538461539,0.9953810623556582,0.008695652173913044,1.0,1.0,1.0,1.0,1.0,0.0,0.548095703125,0.060302734375,0.037353515625,-0.000640869140625,-0.008544921875,-0.008819580078125,A,1,2026-08-24_22-04-28,2026-08-24
1.0,0.8839116719242902,0.9519230769230769,1.0,0.06956521739130435,1.0,1.0,1.0,1.0,1.0,0.0,0.5555419921875,0.05322265625,0.037109375,-0.00274658203125,-0.008819580078125,-0.01702880859375,A,1,2026-08-24_22-04-28,2026-08-24
1.0,0.8788643533123028,0.9711538461538461,1.0,0.008695652173913044,1.0,1.0,1.0,1.0,1.0,0.0,0.55615234375,0.069091796875,0.02978515625,-0.00714111328125,-0.013641357421875,-0.022247314453125,A,1,2026-08-24_22-04-28,2026-08-24
1.0,0.8914826498422713,0.9631410256410257,0.976905311778291,0.0,1.0,1.0,1.0,1.0,1.0,0.0,0.5589599609375,0.084716796875,0.0328369140625,-0.00347900390625,-0.014678955078125,-0.01483154296875,A,1,2026-08-24_22-04-28,2026-08-24
1.0,0.8763406940063091,0.9567307692307693,1.0,0.14782608695652175,1.0,1.0,1.0,1.0,1.0,0.0,0.56005859375,0.09033203125,0.0328369140625,-0.004180908203125,-0.017333984375,-0.003021240234375,A,1,2026-08-24_22-04-28,2026-08-24
1.0,0.8725552050473186,0.9503205128205128,0.9353348729792148,0.0,1.0,1.0,1.0,1.0,1.0,0.0,0.5557861328125,0.089111328125,0.0220947265625,-0.004119873046875,-0.02032470703125,0.0045166015625,A,1,2026-08-24_22-04-28,2026-08-24
1.0,0.8725552050473186,0.9647435897435898,1.0,0.008695652173913044,1.0,1.0,1.0,1.0,1.0,0.0,0.5582275390625,0.083251953125,0.020263671875,-0.012664794921875,-0.015350341796875,0.005889892578125,A,1,2026-08-24_22-04-28,2026-08-24
1.0,0.886435331230284,0.9391025641025641,1.0,0.0,1.0,1.0,1.0,1.0,1.0,0.0,0.55908203125,0.094482421875,0.0218505859375,-0.01824951171875,-0.011199951171875,0.007110595703125,A,1,2026-08-24_22-04-28,2026-08-24
1.0,0.8738170347003155,0.9647435897435898,1.0,0.02608695652173913,1.0,1.0,1.0,1.0,1.0,0.0,0.553955078125,0.0780029296875,0.0167236328125,-0.010467529296875,-0.006103515625,0.00958251953125,A,1,2026-08-24_22-04-28,2026-08-24
1.0,0.8750788643533123,0.969551282051282,0.976905311778291,0.0,1.0,1.0,1.0,1.0,1.0,0.0,0.5550537109375,0.0748291015625,0.0206298828125,-0.00970458984375,-0.005126953125,0.008636474609375,A,1,2026-08-24_22-04-28,2026-08-24
1.0,0.8801261829652997,0.9583333333333334,0.9907621247113164,0.0,1.0,1.0,1.0,1.0,1.0,0.0,0.5546875,0.0645751953125,0.0198974609375,-0.008331298828125,-0.005340576171875,0.00714111328125,A,1,2026-08-24_22-04-28,2026-08-24
1.0,0.8813880126182966,0.9599358974358975,0.953810623556582,0.0,1.0,1.0,1.0,1.0,1.0,0.0,0.5609130859375,0.0687255859375,0.019287109375,-0.010528564453125,-0.00689697265625,0.006561279296875,A,1,2026-08-24_22-04-28,2026-08-24
1.0,0.8750788643533123,0.9631410256410257,1.0,0.02608695652173913,1.0,1.0,1.0,1.0,1.0,0.0,0.5518798828125,0.0670166015625,0.0223388671875,-0.01300048828125,-0.00384521484375,0.00579833984375,A,1,2026-08-24_22-04-28,2026-08-24
1.0,0.8700315457413249,0.9567307692307693,0.976905311778291,0.008695652173913044,1.0,1.0,1.0,1.0,1.0,0.0,0.545654296875,0.06298828125,0.0235595703125,-0.010650634765625,-0.000335693359375,0.000885009765625,A,1,2026-08-24_22-04-28,2026-08-24
1.0,0.885173501577287,0.9407051282051282,0.9676674364896074,0.10434782608695652,1.0,1.0,1.0,1.0,1.0,0.0,0.557373046875,0.069091796875,0.03369140625,-0.00982666015625,0.00262451171875,-0.00048828125,A,1,2026-08-24_22-04-28,2026-08-24
1.0,0.8725552050473186,0.967948717948718,1.0,0.008695652173913044,1.0,1.0,1.0,1.0,1.0,0.0,0.556640625,0.07275390625,0.0433349609375,-0.00537109375,-0.005523681640625,-0.0010986328125,A,1,2026-08-24_22-04-28,2026-08-24
1.0,0.885173501577287,0.9647435897435898,0.9815242494226328,0.017391304347826087,1.0,1.0,1.0,1.0,1.0,0.0,0.5516357421875,0.0740966796875,0.03759765625,-0.005950927734375,-0.015838623046875,0.00103759765625,A,1,2026-08-24_22-04-28,2026-08-24
1.0,0.8687697160883281,0.9439102564102564,0.9122401847575058,0.06956521739130435,1.0,1.0,1.0,1.0,1.0,0.0,0.5540771484375,0.09033203125,0.034423828125,-0.00408935546875,-0.01861572265625,0.006134033203125,A,1,2026-08-24_22-04-28,2026-08-24
1.0,0.8725552050473186,0.9599358974358975,1.0,0.0,1.0,1.0,1.0,1.0,1.0,0.0,0.5582275390625,0.0596923828125,0.018798828125,-0.0142822265625,-0.0191650390625,0.004180908203125,A,1,2026-08-24_22-04-28,2026-08-24
1.0,0.8801261829652997,0.969551282051282,1.0,0.09565217391304348,1.0,1.0,1.0,1.0,1.0,0.0,0.55322265625,0.091552734375,0.026123046875,-0.033447265625,-0.0140380859375,0.00244140625,A,1,2026-08-24_22-04-28,2026-08-24
1.0,0.877602523659306,0.9551282051282052,1.0,0.0,1.0,1.0,1.0,1.0,1.0,0.0,0.5562744140625,0.0810546875,0.017578125,-0.024383544921875,-0.00567626953125,0.010528564453125,A,1,2026-08-24_22-04-28,2026-08-24
1.0,0.9053627760252366,0.9855769230769231,1.0,0.008695652173913044,1.0,1.0,1.0,1.0,1.0,0.0,0.559326171875,0.0792236328125,0.02978515625,-0.021240234375,-0.00244140625,0.012603759765625,A,1,2026-08-24_22-04-28,2026-08-24
1.0,0.9369085173501577,0.9759615384615384,1.0,0.043478260869565216,1.0,1.0,1.0,1.0,1.0,0.0,0.55712890625,0.0574951171875,0.033935546875,-0.014739990234375,-0.003692626953125,-0.00048828125,A,2,2026-08-24_22-04-28,2026-08-24
1.0,0.9217665615141956,0.9759615384615384,1.0,0.0,1.0,1.0,1.0,1.0,1.0,0.0,0.55908203125,0.061767578125,0.0408935546875,-0.01300048828125,-0.00213623046875,-0.000274658203125,A,2,2026-08-24_22-04-28,2026-08-24
1.0,0.9255520504731861,0.969551282051282,0.976905311778291,0.0782608695652174,1.0,1.0,1.0,1.0,1.0,0.0,0.554443359375,0.0631103515625,0.0462646484375,-0.01055908203125,-0.001373291015625,0.00115966796875,A,2,2026-08-24_22-04-28,2026-08-24
0.9983193277310924,0.9268138801261829,1.0,1.0,0.0,1.0,1.0,1.0,1.0,1.0,0.0,0.5533447265625,0.0540771484375,0.0426025390625,-0.014068603515625,-0.008331298828125,0.00115966796875,A,2,2026-08-24_22-04-28,2026-08-24
1.0,0.9495268138801262,0.9855769230769231,0.9861431870669746,0.06086956521739131,1.0,1.0,1.0,1.0,1.0,0.0,0.5498046875,0.060546875,0.0380859375,-0.01348876953125,-0.010528564453125,0.00103759765625,A,2,2026-08-24_22-04-28,2026-08-24
1.0,0.934384858044164,0.9919871794871795,0.9630484988452656,0.02608695652173913,1.0,1.0,1.0,1.0,1.0,0.0,0.550048828125,0.060791015625,0.0404052734375,-0.0152587890625,-0.00628662109375,0.001678466796875,A,2,2026-08-24_22-04-28,2026-08-24
1.0,0.9470031545741325,0.9551282051282052,0.9353348729792148,0.06086956521739131,1.0,1.0,1.0,1.0,1.0,0.0,0.5589599609375,0.0596923828125,0.045654296875,-0.018218994140625,-0.009185791015625,0.0018310546875,A,2,2026-08-24_22-04-28,2026-08-24
1.0,0.9394321766561514,0.9871794871794872,1.0,0.0782608695652174,1.0,1.0,1.0,1.0,1.0,0.0,0.55419921875,0.064208984375,0.0457763671875,-0.0133056640625,-0.011016845703125,0.004180908203125,A,2,2026-08-24_22-04-28,2026-08-24
0.9596638655462185,0.9457413249211356,0.9839743589743589,1.0,0.043478260869565216,1.0,1.0,1.0,1.0,1.0,0.0,0.5548095703125,0.0638427734375,0.046875,-0.011260986328125,-0.015472412109375,0.006256103515625,A,2,2026-08-24_22-04-28,2026-08-24
1.0,0.8927444794952681,1.0,1.0,0.0,1.0,1.0,1.0,1.0,1.0,0.0,0.5587158203125,0.0595703125,0.04150390625,-0.011138916015625,-0.010009765625,0.00640869140625,A,2,2026-08-24_22-04-28,2026-08-24
0.9915966386554622,0.9116719242902208,0.9775641025641025,1.0,0.0,1.0,1.0,1.0,1.0,1.0,0.0,0.5601806640625,0.06591796875,0.04833984375,-0.018341064453125,-0.0067138671875,0.0023193359375,A,2,2026-08-24_22-04-28,2026-08-24
0.9495798319327731,0.9091482649842272,0.969551282051282,1.0,0.0,1.0,1.0,1.0,1.0,1.0,0.0,0.5577392578125,0.0650634765625,0.0435791015625,-0.015869140625,-0.00701904296875,0.00408935546875,A,2,2026-08-24_22-04-28,2026-08-24
1.0,0.9470031545741325,0.9487179487179487,1.0,0.008695652173913044,1.0,1.0,1.0,1.0,1.0,0.0,0.5611572265625,0.0596923828125,0.04248046875,-0.012939453125,-0.008819580078125,0.0052490234375,A,2,2026-08-24_22-04-28,2026-08-24
0.9831932773109243,0.9167192429022082,0.9471153846153846,1.0,0.11304347826086956,1.0,1.0,1.0,1.0,1.0,0.0,0.5638427734375,0.0592041015625,0.0416259765625,-0.013214111328125,-0.008575439453125,0.004852294921875,A,2,2026-08-24_22-04-28,2026-08-24
0.9815126050420168,0.9545741324921135,0.9935897435897436,1.0,0.02608695652173913,1.0,1.0,1.0,1.0,1.0,0.0,0.5601806640625,0.0631103515625,0.0418701171875,-0.01373291015625,-0.009246826171875,0.00677490234375,A,2,2026-08-24_22-04-28,2026-08-24
1.0,0.9356466876971609,0.9935897435897436,1.0,0.0,1.0,1.0,1.0,1.0,1.0,0.0,0.5596923828125,0.0533447265625,0.0418701171875,-0.016448974609375,-0.00946044921875,0.004852294921875,A,2,2026-08-24_22-04-28,2026-08-24
1.0,0.9533123028391167,0.9919871794871795,1.0,0.09565217391304348,1.0,1.0,1.0,1.0,1.0,0.0,0.5592041015625,0.054931640625,0.0443115234375,-0.014678955078125,-0.011322021484375,0.005828857421875,A,2,2026-08-24_22-04-28,2026-08-24
0.973109243697479,0.9331230283911672,0.9663461538461539,0.9815242494226328,0.02608695652173913,1.0,1.0,1.0,1.0,1.0,0.0,0.55908203125,0.056640625,0.041748046875,-0.0167236328125,-0.01361083984375,0.003021240234375,A,2,2026-08-24_22-04-28,2026-08-24
0.9882352941176471,0.9217665615141956,0.9839743589743589,1.0,0.0,1.0,1.0,1.0,1.0,1.0,0.0,0.5572509765625,0.0540771484375,0.03466796875,-0.013458251953125,-0.0120849609375,0.002166748046875,A,2,2026-08-24_22-04-28,2026-08-24
0.9798319327731092,0.9331230283911672,0.9903846153846154,1.0,0.017391304347826087,1.0,1.0,1.0,1.0,1.0,0.0,0.55712890625,0.0546875,0.029052734375,-0.015899658203125,-0.00689697265625,-0.0015869140625,A,2,2026-08-24_22-04-28,2026-08-24
1.0,0.950788643533123,1.0,1.0,0.0,1.0,1.0,1.0,1.0,1.0,0.0,0.55615234375,0.06298828125,0.0374755859375,-0.01129150390625,-0.007049560546875,-0.002349853515625,A,2,2026-08-24_22-04-28,2026-08-24
1.0,0.9356466876971609,0.9775641025641025,1.0,0.06956521739130435,1.0,1.0,1.0,1.0,1.0,0.0,0.5574951171875,0.0609130859375,0.0406494140625,-0.00360107421875,-0.008056640625,0.00054931640625,A,2,2026-08-24_22-04-28,2026-08-24
0.9630252100840336,0.9444794952681388,0.9807692307692307,0.976905311778291,0.017391304347826087,1.0,1.0,1.0,1.0,1.0,0.0,0.5567626953125,0.0577392578125,0.0369873046875,-0.0035400390625,-0.005889892578125,-0.002685546875,A,2,2026-08-24_22-04-28,2026-08-24
1.0,0.9457413249211356,0.9807692307692307,1.0,0.0782608695652174,1.0,1.0,1.0,1.0,1.0,0.0,0.5562744140625,0.0679931640625,0.0386962890625,-0.002471923828125,-0.005218505859375,-0.002288818359375,A,2,2026-08-24_22-04-28,2026-08-24
1.0,0.9470031545741325,0.9599358974358975,1.0,0.034782608695652174,1.0,1.0,1.0,1.0,1.0,0.0,0.555419921875,0.056640625,0.0377197265625,-0.00115966796875,-0.006744384765625,-0.0018310546875,A,2,2026-08-24_22-04-28,2026-08-24
0.9949579831932773,0.9457413249211356,0.9967948717948718,1.0,0.0,1.0,1.0,1.0,1.0,1.0,0.0,0.5550537109375,0.0592041015625,0.0408935546875,-0.0050048828125,-0.00457763671875,-0.00152587890625,A,2,2026-08-24_22-04-28,2026-08-24
0.9899159663865547,0.9558359621451105,0.9951923076923077,1.0,0.0,1.0,1.0,1.0,1.0,1.0,0.0,0.5596923828125,0.062744140625,0.043701171875,-0.009521484375,-0.006683349609375,0.000335693359375,A,2,2026-08-24_22-04-28,2026-08-24
0.9815126050420168,0.9242902208201893,0.969551282051282,1.0,0.0,1.0,1.0,1.0,1.0,1.0,0.0,0.557861328125,0.0628662109375,0.0423583984375,-0.0140380859375,-0.00634765625,0.00250244140625,A,2,2026-08-24_22-04-28,2026-08-24
0.9949579831932773,0.9041009463722397,0.9647435897435898,1.0,0.09565217391304348,1.0,1.0,1.0,1.0,1.0,0.0,0.5606689453125,0.0623779296875,0.0458984375,-0.014129638671875,-0.00689697265625,0.004058837890625,A,2,2026-08-24_22-04-28,2026-08-24
0.9899159663865547,0.9444794952681388,0.9743589743589743,1.0,0.0,1.0,1.0,1.0,1.0,1.0,0.0,0.552734375,0.061279296875,0.0428466796875,-0.014556884765625,-0.007843017578125,0.00335693359375,A,2,2026-08-24_22-04-28,2026-08-24
0.984873949579832,0.9217665615141956,0.9663461538461539,1.0,0.0,1.0,1.0,1.0,1.0,1.0,0.0,0.5533447265625,0.06103515625,0.044921875,-0.013580322265625,-0.012939453125,0.001861572265625,A,2,2026-08-24_22-04-28,2026-08-24
0.9983193277310924,0.9255520504731861,1.0,1.0,0.0782608695652174,1.0,1.0,1.0,1.0,1.0,0.0,0.5545654296875,0.0648193359375,0.042236328125,-0.00970458984375,-0.015869140625,0.002471923828125,A,2,2026-08-24_22-04-28,2026-08-24
0.9882352941176471,0.9154574132492114,0.9903846153846154,1.0,0.0,1.0,1.0,1.0,1.0,1.0,0.0,0.5589599609375,0.0584716796875,0.03564453125,-0.010223388671875,-0.017181396484375,0.004058837890625,A,2,2026-08-24_22-04-28,2026-08-24
0.9647058823529412,0.9217665615141956,0.9775641025641025,0.976905311778291,0.0,1.0,1.0,1.0,1.0,1.0,0.0,0.5523681640625,0.0628662109375,0.0330810546875,-0.01129150390625,-0.013763427734375,0.0037841796875,A,2,2026-08-24_22-04-28,2026-08-24
0.957983193277311,0.9305993690851735,1.0,1.0,0.043478260869565216,1.0,1.0,1.0,1.0,1.0,0.0,0.5606689453125,0.0614013671875,0.032470703125,-0.016143798828125,-0.0091552734375,0.000579833984375,A,2,2026-08-24_22-04-28,2026-08-24
0.9781512605042016,0.9129337539432176,0.9887820512820513,1.0,0.034782608695652174,1.0,1.0,1.0,1.0,1.0,0.0,0.5560302734375,0.07275390625,0.039306640625,-0.01385498046875,-0.00799560546875,0.006072998046875,A,2,2026-08-24_22-04-28,2026-08-24
1.0,0.9268138801261829,0.9935897435897436,1.0,0.0,1.0,1.0,1.0,1.0,1.0,0.0,0.5616455078125,0.0595703125,0.04248046875,-0.009552001953125,-0.009368896484375,0.0076904296875,A,2,2026-08-24_22-04-28,2026-08-24
0.9663865546218487,0.9129337539432176,0.9743589743589743,0.9076212471131639,1.0,1.0,1.0,1.0,1.0,1.0,0.0,0.5576171875,0.058837890625,0.037353515625,-0.010589599609375,-0.01043701171875,0.006378173828125,A,2,2026-08-24_22-04-28,2026-08-24
1.0,0.9457413249211356,0.9615384615384616,1.0,0.0782608695652174,1.0,1.0,1.0,1.0,1.0,0.0,0.556396484375,0.0565185546875,0.03857421875,-0.007171630859375,-0.009857177734375,0.003631591796875,A,2,2026-08-24_22-04-28,2026-08-24
1.0,0.934384858044164,0.9935897435897436,1.0,0.06956521739130435,1.0,1.0,1.0,1.0,1.0,0.0,0.5545654296875,0.0599365234375,0.04345703125,-0.0118408203125,-0.01434326171875,0.00335693359375,A,2,2026-08-24_22-04-28,2026-08-24
0.9495798319327731,0.917981072555205,0.9599358974358975,0.9722863741339491,0.0,1.0,1.0,1.0,1.0,1.0,0.0,0.5635986328125,0.06103515625,0.03369140625,-0.00897216796875,-0.010589599609375,0.0069580078125,A,3,2026-08-24_22-04-28,2026-08-24
0.9747899159663865,0.9041009463722397,0.9310897435897436,1.0,0.034782608695652174,1.0,1.0,1.0,1.0,1.0,0.0,0.5643310546875,0.0621337890625,0.0386962890625,-0.021148681640625,-0.006134033203125,0.001739501953125,A,3,2026-08-24_22-04-28,2026-08-24
1.0,0.9192429022082019,0.9935897435897436,1.0,0.06086956521739131,1.0,1.0,1.0,1.0,1.0,0.0,0.558349609375,0.073974609375,0.0408935546875,-0.01708984375,-0.006561279296875,0.005401611328125,A,3,2026-08-24_22-04-28,2026-08-24
0.973109243697479,0.8952681388012619,0.9663461538461539,1.0,0.02608695652173913,1.0,1.0,1.0,1.0,1.0,0.0,0.56103515625,0.06591796875,0.03857421875,-0.010406494140625,-0.007049560546875,0.00836181640625,A,3,2026-08-24_22-04-28,2026-08-24
0.9680672268907563,0.8927444794952681,0.9599358974358975,1.0,0.034782608695652174,1.0,1.0,1.0,1.0,1.0,0.0,0.5577392578125,0.06103515625,0.0433349609375,-0.010833740234375,-0.01025390625,0.0059814453125,A,3,2026-08-24_22-04-28,2026-08-24
0.946218487394958,0.8801261829652997,0.9599358974358975,0.9076212471131639,0.008695652173913044,1.0,1.0,1.0,1.0,1.0,0.0,0.5548095703125,0.0572509765625,0.039794921875,-0.009735107421875,-0.009918212890625,0.00408935546875,A,3,2026-08-24_22-04-28,2026-08-24
0.9764705882352941,0.8952681388012619,0.9791666666666666,1.0,0.0,1.0,1.0,1.0,1.0,1.0,0.0,0.5513916015625,0.05810546875,0.0390625,-0.0172119140625,-0.009490966796875,0.000396728515625,A,3,2026-08-24_22-04-28,2026-08-24
0.9831932773109243,0.8977917981072555,0.9519230769230769,0.9676674364896074,0.008695652173913044,1.0,1.0,1.0,1.0,1.0,0.0,0.5526123046875,0.06494140625,0.0438232421875,-0.01788330078125,-0.00537109375,0.002960205078125,A,3,2026-08-24_22-04-28,2026-08-24
0.9781512605042016,0.8952681388012619,0.9583333333333334,1.0,0.0,1.0,1.0,1.0,1.0,1.0,0.0,0.5533447265625,0.0567626953125,0.044677734375,-0.013916015625,-0.002838134765625,0.006134033203125,A,3,2026-08-24_22-04-28,2026-08-24
1.0,0.8990536277602523,0.969551282051282,1.0,0.0,1.0,1.0,1.0,1.0,1.0,0.0,0.556640625,0.05517578125,0.04736328125,-0.016387939453125,-0.009979248046875,0.004241943359375,A,3,2026-08-24_22-04-28,2026-08-24
0.9747899159663865,0.886435331230284,0.967948717948718,1.0,0.017391304347826087,1.0,1.0,1.0,1.0,1.0,0.0,0.5521240234375,0.0533447265625,0.0433349609375,-0.016815185546875,-0.00946044921875,-0.00067138671875,A,3,2026-08-24_22-04-28,2026-08-24
1.0,0.8952681388012619,0.9551282051282052,1.0,0.06086956521739131,1.0,1.0,1.0,1.0,1.0,0.0,0.553955078125,0.066650390625,0.0408935546875,-0.020050048828125,-0.005645751953125,-0.002349853515625,A,3,2026-08-24_22-04-28,2026-08-24
0.9697478991596639,0.9028391167192429,0.9759615384615384,1.0,0.0,1.0,1.0,1.0,1.0,1.0,0.0,0.5589599609375,0.071044921875,0.0465087890625,-0.00860595703125,-0.00726318359375,0.00262451171875,A,3,2026-08-24_22-04-28,2026-08-24
0.9764705882352941,0.9091482649842272,0.9583333333333334,1.0,0.02608695652173913,1.0,1.0,1.0,1.0,1.0,0.0,0.55615234375,0.0655517578125,0.0379638671875,-0.004608154296875,-0.00653076171875,0.003692626953125,A,3,2026-08-24_22-04-28,2026-08-24
0.9714285714285714,0.8952681388012619,0.9599358974358975,1.0,0.034782608695652174,1.0,1.0,1.0,1.0,1.0,0.0,0.55615234375,0.068115234375,0.041748046875,-0.0045166015625,-0.00225830078125,0.0052490234375,A,3,2026-08-24_22-04-28,2026-08-24
0.9831932773109243,0.9015772870662461,0.9855769230769231,0.9907621247113164,0.0,1.0,1.0,1.0,1.0,1.0,0.0,0.5535888671875,0.064453125,0.0389404296875,3.0517578125e-05,-0.0025634765625,0.00579833984375,A,3,2026-08-24_22-04-28,2026-08-24
0.9865546218487395,1.0,0.9839743589743589,0.9907621247113164,0.02608695652173913,1.0,1.0,1.0,1.0,1.0,0.0,0.5572509765625,0.0645751953125,0.04150390625,-0.01226806640625,-0.001068115234375,0.004425048828125,A,3,2026-08-24_22-04-28,2026-08-24
0.9983193277310924,1.0,0.9967948717948718,1.0,0.0,1.0,1.0,1.0,1.0,1.0,0.0,0.5555419921875,0.06884765625,0.050048828125,-0.008544921875,-0.003662109375,0.0079345703125,A,3,2026-08-24_22-04-28,2026-08-24
0.9411764705882353,1.0,0.9711538461538461,0.9491916859122402,0.008695652173913044,1.0,1.0,1.0,1.0,1.0,0.0,0.5552978515625,0.0628662109375,0.053955078125,-0.00738525390625,-0.01177978515625,0.00927734375,A,3,2026-08-24_22-04-28,2026-08-24
0.984873949579832,1.0,0.9759615384615384,1.0,0.0,1.0,1.0,1.0,1.0,1.0,0.0,0.55859375,0.06396484375,0.046630859375,-0.009033203125,-0.01068115234375,0.00836181640625,A,3,2026-08-24_22-04-28,2026-08-24
0.9781512605042016,1.0,0.9615384615384616,0.9907621247113164,0.034782608695652174,1.0,1.0,1.0,1.0,1.0,0.0,0.54931640625,0.0587158203125,0.045166015625,-0.006134033203125,-0.008941650390625,0.006805419921875,A,3,2026-08-24_22-04-28,2026-08-24
0.973109243697479,1.0,0.9711538461538461,1.0,0.008695652173913044,1.0,1.0,1.0,1.0,1.0,0.0,0.55712890625,0.0635986328125,0.0498046875,-0.009490966796875,-0.00921630859375,0.005767822265625,A,3,2026-08-24_22-04-28,2026-08-24
0.9815126050420168,1.0,0.9567307692307693,0.976905311778291,0.0,1.0,1.0,1.0,1.0,1.0,0.0,0.5601806640625,0.05712890625,0.0452880859375,-0.0081787109375,-0.011962890625,0.005584716796875,A,3,2026-08-24_22-04-28,2026-08-24
0.973109243697479,1.0,0.9631410256410257,0.9722863741339491,0.008695652173913044,1.0,1.0,1.0,1.0,1.0,0.0,0.55908203125,0.061279296875,0.0439453125,-0.00909423828125,-0.014739990234375,0.00396728515625,A,3,2026-08-24_22-04-28,2026-08-24
0.9563025210084034,1.0,0.969551282051282,0.9353348729792148,0.02608695652173913,1.0,1.0,1.0,1.0,1.0,0.0,0.5572509765625,0.0552978515625,0.0413818359375,-0.013214111328125,-0.01220703125,6.103515625e-05,A,3,2026-08-24_22-04-28,2026-08-24
0.9798319327731092,1.0,0.9727564102564102,0.9676674364896074,0.02608695652173913,1.0,1.0,1.0,1.0,1.0,0.0,0.556640625,0.0665283203125,0.037841796875,-0.006561279296875,-0.009979248046875,0.000244140625,A,3,2026-08-24_22-04-28,2026-08-24
0.9714285714285714,1.0,1.0,0.8983833718244804,0.008695652173913044,1.0,1.0,1.0,1.0,1.0,0.0,0.56298828125,0.0592041015625,0.038818359375,-0.001617431640625,-0.010986328125,0.004302978515625,A,3,2026-08-24_22-04-28,2026-08-24
0.9798319327731092,1.0,0.9647435897435898,0.976905311778291,0.034782608695652174,1.0,1.0,1.0,1.0,1.0,0.0,0.5606689453125,0.056884765625,0.0379638671875,-0.006439208984375,-0.010986328125,0.0006103515625,A,3,2026-08-24_22-04-28,2026-08-24
0.9697478991596639,1.0,0.9439102564102564,0.9076212471131639,0.043478260869565216,1.0,1.0,1.0,1.0,1.0,0.0,0.5594482421875,0.0626220703125,0.0345458984375,-0.01080322265625,-0.008056640625,-0.0015869140625,A,3,2026-08-24_22-04-28,2026-08-24
0.9714285714285714,1.0,0.9791666666666666,0.9815242494226328,0.12173913043478261,1.0,1.0,1.0,1.0,1.0,0.0,0.5576171875,0.059326171875,0.0330810546875,-0.009674072265625,-0.0072021484375,-0.001800537109375,A,3,2026-08-24_22-04-28,2026-08-24
0.9630252100840336,1.0,1.0,0.9907621247113164,0.0,1.0,1.0,1.0,1.0,1.0,0.0,0.5555419921875,0.0660400390625,0.0364990234375,-0.011932373046875,-0.006378173828125,-0.001068115234375,A,3,2026-08-24_22-04-28,2026-08-24
0.9764705882352941,0.8927444794952681,0.9807692307692307,0.976905311778291,0.0,1.0,1.0,1.0,1.0,1.0,0.0,0.5582275390625,0.0643310546875,0.037841796875,-0.007598876953125,-0.00579833984375,-0.00048828125,A,3,2026-08-24_22-04-28,2026-08-24
1.0,0.8977917981072555,0.9887820512820513,1.0,0.0,1.0,1.0,1.0,1.0,1.0,0.0,0.558349609375,0.065185546875,0.038330078125,-0.009368896484375,-0.00506591796875,-0.002105712890625,A,3,2026-08-24_22-04-28,2026-08-24
0.9697478991596639,0.8738170347003155,0.9711538461538461,1.0,0.0,1.0,1.0,1.0,1.0,1.0,0.0,0.5548095703125,0.0645751953125,0.04052734375,-0.010833740234375,0.000213623046875,-0.0010986328125,A,3,2026-08-24_22-04-28,2026-08-24
0.9546218487394958,0.8801261829652997,0.9246794871794872,0.9122401847575058,0.06956521739130435,1.0,1.0,1.0,1.0,1.0,0.0,0.556640625,0.06689453125,0.0423583984375,-0.012603759765625,-0.002471923828125,-0.000274658203125,A,3,2026-08-24_22-04-28,2026-08-24
0.9680672268907563,0.934384858044164,0.9342948717948718,0.9630484988452656,0.017391304347826087,1.0,1.0,1.0,1.0,1.0,0.0,0.5543212890625,0.0736083984375,0.0411376953125,-0.015411376953125,-0.003692626953125,0.003173828125,A,3,2026-08-24_22-04-28,2026-08-24
0.9697478991596639,0.934384858044164,0.9599358974358975,0.976905311778291,0.06956521739130435,1.0,1.0,1.0,1.0,1.0,0.0,0.552001953125,0.065185546875,0.0511474609375,-0.012939453125,-0.004913330078125,0.004180908203125,A,3,2026-08-24_22-04-28,2026-08-24
0.9378151260504202,0.9520504731861199,0.9519230769230769,0.8937644341801386,0.017391304347826087,1.0,1.0,1.0,1.0,1.0,0.0,0.5545654296875,0.07177734375,0.0477294921875,-0.012176513671875,-0.009246826171875,0.006011962890625,A,3,2026-08-24_22-04-28,2026-08-24
0.9697478991596639,0.9369085173501577,0.969551282051282,1.0,0.06086956521739131,1.0,1.0,1.0,1.0,1.0,0.0,0.5517578125,0.070556640625,0.045654296875,-0.009063720703125,-0.010498046875,0.00689697265625,A,3,2026-08-24_22-04-28,2026-08-24
0.9647058823529412,0.9356466876971609,0.9599358974358975,0.976905311778291,0.017391304347826087,1.0,1.0,1.0,1.0,1.0,0.0,0.5535888671875,0.06494140625,0.046875,-0.010772705078125,-0.01416015625,0.007080078125,A,3,2026-08-24_22-04-28,2026-08-24
0.9563025210084034,0.9280757097791799,0.9743589743589743,1.0,0.0,1.0,1.0,1.0,1.0,1.0,0.0,0.56005859375,0.04296875,0.0682373046875,-0.023406982421875,-0.009735107421875,0.0067138671875,A,4,2026-08-24_22-04-28,2026-08-24
1.0,0.9684542586750788,0.9791666666666666,1.0,0.08695652173913043,1.0,1.0,1.0,1.0,1.0,0.0,0.5577392578125,0.0302734375,0.06640625,-0.0206298828125,-0.0113525390625,0.008087158203125,A,4,2026-08-24_22-04-28,2026-08-24
0.9781512605042016,0.9331230283911672,0.9615384615384616,1.0,0.043478260869565216,1.0,1.0,1.0,1.0,1.0,0.0,0.5560302734375,0.0347900390625,0.0665283203125,-0.01727294921875,-0.009002685546875,0.00445556640625,A,4,2026-08-24_22-04-28,2026-08-24
0.9983193277310924,0.9558359621451105,0.9599358974358975,1.0,0.034782608695652174,1.0,1.0,1.0,1.0,1.0,0.0,0.5625,0.0257568359375,0.060302734375,-0.01251220703125,-0.006591796875,0.00421142578125,A,4,2026-08-24_22-04-28,2026-08-24
1.0,0.9495268138801262,0.9519230769230769,0.976905311778291,0.09565217391304348,1.0,1.0,1.0,1.0,1.0,0.0,0.555908203125,0.0333251953125,0.0655517578125,-0.02008056640625,-0.0067138671875,0.00262451171875,A,4,2026-08-24_22-04-28,2026-08-24
0.9899159663865547,0.9646687697160883,0.9631410256410257,1.0,0.0,1.0,1.0,1.0,1.0,1.0,0.0,0.5570068359375,0.02783203125,0.063720703125,-0.0179443359375,-0.00823974609375,0.0042724609375,A,4,2026-08-24_22-04-28,2026-08-24
1.0,0.9772870662460568,0.9855769230769231,1.0,0.017391304347826087,1.0,1.0,1.0,1.0,1.0,0.0,0.560791015625,0.027587890625,0.060546875,-0.027313232421875,-0.011627197265625,0.003143310546875,A,4,2026-08-24_22-04-28,2026-08-24
0.9781512605042016,0.9520504731861199,0.9487179487179487,0.9953810623556582,0.0,1.0,1.0,1.0,1.0,1.0,0.0,0.5621337890625,0.038330078125,0.0638427734375,-0.0186767578125,-0.013427734375,0.00848388671875,A,4,2026-08-24_22-04-28,2026-08-24
0.9949579831932773,0.9495268138801262,0.967948717948718,1.0,0.0,1.0,1.0,1.0,1.0,1.0,0.0,0.552978515625,0.0233154296875,0.0552978515625,-0.019622802734375,-0.012664794921875,0.00787353515625,A,4,2026-08-24_22-04-28,2026-08-24
1.0,0.9735015772870662,0.9599358974358975,0.9815242494226328,0.02608695652173913,1.0,1.0,1.0,1.0,1.0,0.0,0.5570068359375,0.033935546875,0.0604248046875,-0.013397216796875,-0.01092529296875,0.008270263671875,A,4,2026-08-24_22-04-28,2026-08-24
0.9882352941176471,0.9747634069400631,0.9599358974358975,1.0,0.0,1.0,1.0,1.0,1.0,1.0,0.0,0.5535888671875,0.02294921875,0.0506591796875,-0.015106201171875,-0.007476806640625,0.005523681640625,A,4,2026-08-24_22-04-28,2026-08-24
0.9983193277310924,0.9697160883280758,0.9503205128205128,1.0,0.043478260869565216,1.0,1.0,1.0,1.0,1.0,0.0,0.554931640625,0.0299072265625,0.051025390625,-0.0220947265625,-0.006256103515625,0.00335693359375,A,4,2026-08-24_22-04-28,2026-08-24
0.9478991596638655,0.9192429022082019,0.9246794871794872,0.9260969976905312,0.034782608695652174,1.0,1.0,1.0,1.0,1.0,0.0,0.5528564453125,0.035400390625,0.0567626953125,-0.02044677734375,-0.00604248046875,0.008392333984375,A,4,2026-08-24_22-04-28,2026-08-24
0.9915966386554622,0.9381703470031546,0.9551282051282052,1.0,0.0,1.0,1.0,1.0,1.0,1.0,0.0,0.5531005859375,0.0316162109375,0.0604248046875,-0.017059326171875,-0.00543212890625,0.011627197265625,A,4,2026-08-24_22-04-28,2026-08-24
0.9630252100840336,0.9558359621451105,0.9631410256410257,0.953810623556582,0.0,1.0,1.0,1.0,1.0,1.0,0.0,0.5574951171875,0.0216064453125,0.06787109375,-0.019866943359375,-0.00469970703125,0.012054443359375,A,4,2026-08-24_22-04-28,2026-08-24
0.9899159663865547,0.950788643533123,0.9583333333333334,1.0,0.0,1.0,1.0,1.0,1.0,1.0,0.0,0.555908203125,0.02490234375,0.0614013671875,-0.0303955078125,-0.00543212890625,0.008636474609375,A,4,2026-08-24_22-04-28,2026-08-24
0.9647058823529412,0.9659305993690852,0.9342948717948718,0.9630484988452656,0.043478260869565216,1.0,1.0,1.0,1.0,1.0,0.0,0.563720703125,0.0408935546875,0.0716552734375,-0.03363037109375,-0.010894775390625,0.011444091796875,A,4,2026-08-24_22-04-28,2026-08-24
0.9613445378151261,0.9394321766561514,0.9503205128205128,0.976905311778291,0.08695652173913043,1.0,1.0,1.0,1.0,1.0,0.0,0.5576171875,0.0321044921875,0.0684814453125,-0.02618408203125,-0.014251708984375,0.019989013671875,A,4,2026-08-24_22-04-28,2026-08-24
0.9831932773109243,0.9545741324921135,0.9631410256410257,1.0,0.0,1.0,1.0,1.0,1.0,1.0,0.0,0.5618896484375,0.017333984375,0.0594482421875,-0.02935791015625,-0.015777587890625,0.014984130859375,A,4,2026-08-24_22-04-28,2026-08-24
0.973109243697479,0.9406940063091482,0.967948717948718,1.0,0.13043478260869565,1.0,1.0,1.0,1.0,1.0,0.0,0.5635986328125,0.028076171875,0.0609130859375,-0.030029296875,-0.019500732421875,0.01336669921875,A,4,2026-08-24_22-04-28,2026-08-24
0.9899159663865547,0.9419558359621452,0.9807692307692307,1.0,0.043478260869565216,1.0,1.0,1.0,1.0,1.0,0.0,0.5703125,0.01806640625,0.061279296875,-0.024688720703125,-0.01861572265625,0.012908935546875,A,4,2026-08-24_22-04-28,2026-08-24
0.9663865546218487,0.9936908517350158,0.9551282051282052,1.0,0.008695652173913044,1.0,1.0,1.0,1.0,1.0,0.0,0.5643310546875,0.0184326171875,0.0560302734375,-0.03009033203125,-0.01434326171875,0.0067138671875,A,4,2026-08-24_22-04-28,2026-08-24
1.0,1.0,0.9839743589743589,1.0,0.008695652173913044,1.0,1.0,1.0,1.0,1.0,0.0,0.56103515625,0.0223388671875,0.059326171875,-0.026947021484375,-0.013427734375,0.0048828125,A,4,2026-08-24_22-04-28,2026-08-24
0.9613445378151261,0.9646687697160883,0.9455128205128205,0.9353348729792148,0.0,1.0,1.0,1.0,1.0,1.0,0.0,0.5672607421875,0.0206298828125,0.058349609375,-0.028411865234375,-0.01666259765625,0.003936767578125,A,4,2026-08-24_22-04-28,2026-08-24
0.9899159663865547,0.9936908517350158,0.9775641025641025,1.0,0.0,1.0,1.0,1.0,1.0,1.0,0.0,0.5601806640625,0.0234375,0.0570068359375,-0.0364990234375,-0.01397705078125,0.001678466796875,A,4,2026-08-24_22-04-28,2026-08-24
0.9831932773109243,0.9419558359621452,0.9599358974358975,1.0,0.0,1.0,1.0,1.0,1.0,1.0,0.0,0.55322265625,0.0343017578125,0.056396484375,-0.0189208984375,-0.01617431640625,0.00726318359375,A,4,2026-08-24_22-04-28,2026-08-24
0.9831932773109243,0.9924290220820189,0.9775641025641025,1.0,0.0,1.0,1.0,1.0,1.0,1.0,0.0,0.551025390625,0.0146484375,0.0535888671875,-0.01348876953125,-0.01171875,0.0078125,A,4,2026-08-24_22-04-28,2026-08-24
0.9747899159663865,0.934384858044164,0.967948717948718,1.0,0.06956521739130435,1.0,1.0,1.0,1.0,1.0,0.0,0.551025390625,0.0206298828125,0.0457763671875,-0.029052734375,-0.00714111328125,-0.00103759765625,A,4,2026-08-24_22-04-28,2026-08-24
0.9882352941176471,0.9646687697160883,0.9423076923076923,0.9953810623556582,0.0,1.0,1.0,1.0,1.0,1.0,0.0,0.5489501953125,0.0333251953125,0.051513671875,-0.025238037109375,-0.006622314453125,0.00384521484375,A,4,2026-08-24_22-04-28,2026-08-24
1.0,0.9798107255520505,0.969551282051282,1.0,0.06956521739130435,1.0,1.0,1.0,1.0,1.0,0.0,0.5509033203125,0.0318603515625,0.0526123046875,-0.02215576171875,-0.00830078125,0.009033203125,A,4,2026-08-24_22-04-28,2026-08-24
0.9781512605042016,0.9798107255520505,0.967948717948718,1.0,0.8695652173913043,1.0,1.0,1.0,1.0,1.0,0.0,0.5528564453125,0.024169921875,0.0565185546875,-0.027679443359375,-0.00970458984375,0.009033203125,A,4,2026-08-24_22-04-28,2026-08-24
0.9983193277310924,0.9356466876971609,0.9631410256410257,1.0,0.008695652173913044,1.0,1.0,1.0,1.0,1.0,0.0,0.5582275390625,0.0364990234375,0.0611572265625,-0.031402587890625,-0.010223388671875,0.011962890625,A,4,2026-08-24_22-04-28,2026-08-24
0.9647058823529412,0.9621451104100947,0.9567307692307693,1.0,0.02608695652173913,1.0,1.0,1.0,1.0,1.0,0.0,0.55908203125,0.027099609375,0.0531005859375,-0.0223388671875,-0.007659912109375,0.01605224609375,A,4,2026-08-24_22-04-28,2026-08-24
0.9495798319327731,0.9217665615141956,0.9423076923076923,0.9815242494226328,0.0,1.0,1.0,1.0,1.0,1.0,0.0,0.561279296875,0.0257568359375,0.052978515625,-0.02398681640625,-0.005859375,0.01568603515625,A,4,2026-08-24_22-04-28,2026-08-24
0.9697478991596639,0.9520504731861199,0.9663461538461539,1.0,0.0,1.0,1.0,1.0,1.0,1.0,0.0,0.5634765625,0.0208740234375,0.0548095703125,-0.0220947265625,-0.00750732421875,0.016204833984375,A,4,2026-08-24_22-04-28,2026-08-24
0.9495798319327731,0.9369085173501577,0.9567307692307693,1.0,0.0,1.0,1.0,1.0,1.0,1.0,0.0,0.5648193359375,0.01123046875,0.064697265625,-0.02313232421875,-0.00732421875,0.011810302734375,A,4,2026-08-24_22-04-28,2026-08-24
0.9680672268907563,0.9457413249211356,0.9599358974358975,0.976905311778291,0.0,1.0,1.0,1.0,1.0,1.0,0.0,0.5618896484375,0.02783203125,0.063720703125,-0.023529052734375,-0.006134033203125,0.013397216796875,A,4,2026-08-24_22-04-28,2026-08-24
0.9697478991596639,0.9545741324921135,0.9599358974358975,1.0,0.0,1.0,1.0,1.0,1.0,1.0,0.0,0.5604248046875,0.015869140625,0.063720703125,-0.01080322265625,-0.002471923828125,0.014556884765625,A,4,2026-08-24_22-04-28,2026-08-24
0.9781512605042016,0.97602523659306,0.9599358974358975,1.0,0.5565217391304348,1.0,1.0,1.0,1.0,1.0,0.0,0.5638427734375,0.007568359375,0.0655517578125,-0.02508544921875,-0.005218505859375,0.00531005859375,A,4,2026-08-24_22-04-28,2026-08-24
1.0,0.9924290220820189,0.9743589743589743,1.0,1.0,1.0,1.0,1.0,1.0,1.0,0.0,0.564453125,0.030029296875,0.0625,-0.02008056640625,-0.008544921875,0.007720947265625,A,4,2026-08-24_22-04-28,2026-08-24
0.0,0.0,0.22596153846153846,0.0,0.2956521739130435,1.0,1.0,1.0,1.0,1.0,1.0,0.540283203125,0.0404052734375,-0.146240234375,-0.00823974609375,-0.017669677734375,0.010345458984375,B,0,2026-08-24_22-04-28,2026-08-24
0.0,0.0,0.2564102564102564,0.0,0.2608695652173913,1.0,1.0,1.0,1.0,1.0,1.0,0.5369873046875,0.037109375,-0.155029296875,-0.0167236328125,-0.014251708984375,0.005157470703125,B,0,2026-08-24_22-04-28,2026-08-24
0.0,0.0,0.23237179487179488,0.0,0.3130434782608696,1.0,1.0,1.0,1.0,1.0,1.0,0.537841796875,0.041259765625,-0.1572265625,-0.018096923828125,-0.001953125,0.000701904296875,B,0,2026-08-24_22-04-28,2026-08-24
0.0,0.0,0.266025641025641,0.09006928406466513,0.3739130434782609,1.0,1.0,1.0,1.0,1.0,1.0,0.5396728515625,0.04736328125,-0.140380859375,-0.018218994140625,0.0032958984375,0.000244140625,B,0,2026-08-24_22-04-28,2026-08-24
0.0,0.0,0.24519230769230768,0.0,0.1826086956521739,1.0,1.0,1.0,1.0,1.0,1.0,0.54296875,0.0537109375,-0.136962890625,-0.01263427734375,0.002197265625,0.001007080078125,B,0,2026-08-24_22-04-28,2026-08-24
0.0,0.0,0.21794871794871795,0.0,0.24347826086956523,1.0,1.0,1.0,1.0,1.0,1.0,0.5439453125,0.050537109375,-0.130615234375,-0.0123291015625,-0.0018310546875,0.000213623046875,B,0,2026-08-24_22-04-28,2026-08-24
0.0,0.0,0.22756410256410256,0.0,0.3391304347826087,1.0,1.0,1.0,1.0,1.0,1.0,0.541259765625,0.053466796875,-0.135986328125,-0.01776123046875,-0.0120849609375,0.00140380859375,B,0,2026-08-24_22-04-28,2026-08-24
0.0,0.0,0.22596153846153846,0.057736720554272515,0.2608695652173913,1.0,1.0,1.0,1.0,1.0,1.0,0.534423828125,0.0552978515625,-0.1378173828125,-0.018646240234375,-0.015655517578125,0.004913330078125,B,0,2026-08-24_22-04-28,2026-08-24
0.0,0.0,0.21794871794871795,0.0,0.24347826086956523,1.0,1.0,1.0,1.0,1.0,1.0,0.534423828125,0.0504150390625,-0.14990234375,-0.0220947265625,-0.0167236328125,0.006561279296875,B,0,2026-08-24_22-04-28,2026-08-24
0.0,0.0,0.21955128205128205,0.0,0.391304347826087,1.0,1.0,1.0,1.0,1.0,1.0,0.53076171875,0.05322265625,-0.139892578125,-0.0167236328125,-0.01416015625,0.00634765625,B,0,2026-08-24_22-04-28,2026-08-24
0.0,0.0,0.20352564102564102,0.0,0.3130434782608696,1.0,1.0,1.0,1.0,1.0,1.0,0.5316162109375,0.043212890625,-0.147216796875,-0.012176513671875,-0.00762939453125,0.0028076171875,B,0,2026-08-24_22-04-28,2026-08-24
0.0,0.0,0.21794871794871795,0.006928406466512702,0.3739130434782609,1.0,1.0,1.0,1.0,1.0,1.0,0.5345458984375,0.0426025390625,-0.1475830078125,-0.0142822265625,-0.012725830078125,0.00238037109375,B,0,2026-08-24_22-04-28,2026-08-24
0.0,0.0,0.23076923076923078,0.0,0.3217391304347826,1.0,1.0,1.0,1.0,1.0,1.0,0.5340576171875,0.0467529296875,-0.1478271484375,-0.023468017578125,-0.01007080078125,0.002777099609375,B,0,2026-08-24_22-04-28,2026-08-24
0.0,0.0,0.25961538461538464,0.07621247113163972,0.2608695652173913,1.0,1.0,1.0,1.0,1.0,1.0,0.536865234375,0.0516357421875,-0.1431884765625,-0.0247802734375,-0.00335693359375,0.003021240234375,B,0,2026-08-24_22-04-28,2026-08-24
0.0,0.0,0.21794871794871795,0.0,0.26956521739130435,1.0,1.0,1.0,1.0,1.0,1.0,0.5367431640625,0.058349609375,-0.1383056640625,-0.017974853515625,-0.00347900390625,0.002197265625,B,0,2026-08-24_22-04-28,2026-08-24
0.0,0.0,0.23557692307692307,0.03002309468822171,0.34782608695652173,1.0,1.0,1.0,1.0,1.0,1.0,0.53857421875,0.0548095703125,-0.1439208984375,-0.015960693359375,-0.006378173828125,0.00250244140625,B,0,2026-08-24_22-04-28,2026-08-24
0.0,0.0,0.2403846153846154,0.0,0.2608695652173913,1.0,1.0,1.0,1.0,1.0,1.0,0.538330078125,0.0504150390625,-0.141845703125,-0.018096923828125,-0.0091552734375,0.00567626953125,B,0,2026-08-24_22-04-28,2026-08-24
0.0,0.0,0.22596153846153846,0.0,0.3130434782608696,1.0,1.0,1.0,1.0,1.0,1.0,0.535888671875,0.0540771484375,-0.14599609375,-0.01934814453125,-0.003173828125,0.00860595703125,B,0,2026-08-24_22-04-28,2026-08-24
0.0,0.0,0.20512820512820512,0.0,0.30434782608695654,1.0,1.0,1.0,1.0,1.0,1.0,0.5380859375,0.052001953125,-0.14501953125,-0.01702880859375,-0.008270263671875,0.010467529296875,B,0,2026-08-24_22-04-28,2026-08-24
0.0,0.0,0.23076923076923078,0.0,0.21739130434782608,1.0,1.0,1.0,1.0,1.0,1.0,0.539794921875,0.04833984375,-0.143798828125,-0.015777587890625,-0.011322021484375,0.009735107421875,B,0,2026-08-24_22-04-28,2026-08-24
0.0,0.0,0.2419871794871795,0.020785219399538105,0.20869565217391303,1.0,1.0,1.0,1.0,1.0,1.0,0.5390625,0.0390625,-0.1490478515625,-0.02178955078125,-0.014251708984375,0.00823974609375,B,0,2026-08-24_22-04-28,2026-08-24
0.0,0.0,0.25801282051282054,0.0,0.1391304347826087,1.0,1.0,1.0,1.0,1.0,1.0,0.5367431640625,0.0478515625,-0.1407470703125,-0.03558349609375,-0.011749267578125,0.00994873046875,B,0,2026-08-24_22-04-28,2026-08-24
0.0,0.0,0.21634615384615385,0.006928406466512702,0.3130434782608696,1.0,1.0,1.0,1.0,1.0,1.0,0.537353515625,0.050537109375,-0.142578125,-0.028289794921875,-0.006072998046875,0.01116943359375,B,0,2026-08-24_22-04-28,2026-08-24
0.0,0.0,0.20192307692307693,0.0,0.3130434782608696,1.0,1.0,1.0,1.0,1.0,1.0,0.53759765625,0.0482177734375,-0.138671875,-0.02276611328125,-0.0076904296875,0.006591796875,B,0,2026-08-24_22-04-28,2026-08-24
0.0,0.0,0.23717948717948717,0.0,0.3130434782608696,1.0,1.0,1.0,1.0,1.0,1.0,0.5355224609375,0.0472412109375,-0.1414794921875,-0.018768310546875,-0.01031494140625,0.001220703125,B,0,2026-08-24_22-04-28,2026-08-24
0.0,0.0,0.21634615384615385,0.0,0.24347826086956523,1.0,1.0,1.0,1.0,1.0,1.0,0.5341796875,0.0450439453125,-0.1455078125,-0.015289306640625,-0.007171630859375,-0.003326416015625,B,0,2026-08-24_22-04-28,2026-08-24
0.0,0.0,0.1875,0.0,0.2608695652173913,1.0,1.0,1.0,1.0,1.0,1.0,0.532470703125,0.0487060546875,-0.143798828125,-0.014404296875,-0.008026123046875,-0.004669189453125,B,0,2026-08-24_22-04-28,2026-08-24
0.0,0.0,0.19230769230769232,0.0,0.2608695652173913,1.0,1.0,1.0,1.0,1.0,1.0,0.5343017578125,0.0545654296875,-0.1435546875,-0.011749267578125,-0.01422119140625,-0.00115966796875,B,0,2026-08-24_22-04-28,2026-08-24
0.0,0.0,0.21955128205128205,0.0,0.2608695652173913,1.0,1.0,1.0,1.0,1.0,1.0,0.531005859375,0.05224609375,-0.1513671875,-0.011688232421875,-0.0076904296875,0.00042724609375,B,0,2026-08-24_22-04-28,2026-08-24
0.0,0.0,0.21794871794871795,0.0,0.25217391304347825,1.0,1.0,1.0,1.0,1.0,1.0,0.53271484375,0.05322265625,-0.15087890625,-0.014251708984375,-0.00933837890625,0.001129150390625,B,0,2026-08-24_22-04-28,2026-08-24
0.0,0.0,0.21955128205128205,0.0,0.22608695652173913,1.0,1.0,1.0,1.0,1.0,1.0,0.52880859375,0.0546875,-0.1488037109375,-0.021575927734375,-0.010589599609375,0.002105712890625,B,0,2026-08-24_22-04-28,2026-08-24
0.0,0.0,0.24519230769230768,0.006928406466512702,0.21739130434782608,1.0,1.0,1.0,1.0,1.0,1.0,0.5316162109375,0.0556640625,-0.1536865234375,-0.018310546875,-0.003082275390625,0.00421142578125,B,0,2026-08-24_22-04-28,2026-08-24
0.0,0.0,0.2403846153846154,0.0,0.30434782608695654,1.0,1.0,1.0,1.0,1.0,1.0,0.5328369140625,0.0533447265625,-0.1473388671875,-0.010986328125,-0.00091552734375,0.003662109375,B,0,2026-08-24_22-04-28,2026-08-24
0.0,0.0,0.21634615384615385,0.0,0.20869565217391303,1.0,1.0,1.0,1.0,1.0,1.0,0.5302734375,0.0513916015625,-0.1395263671875,-0.008575439453125,0.0006103515625,0.002655029296875,B,0,2026-08-24_22-04-28,2026-08-24
0.0,0.0,0.25,0.0,0.25217391304347825,1.0,1.0,1.0,1.0,1.0,1.0,0.5330810546875,0.04345703125,-0.1461181640625,-0.009613037109375,-0.000701904296875,0.00042724609375,B,0,2026-08-24_22-04-28,2026-08-24
0.0,0.0,0.1987179487179487,0.0,0.4434782608695652,1.0,1.0,1.0,1.0,1.0,1.0,0.535888671875,0.0472412109375,-0.1387939453125,-0.0201416015625,-0.009521484375,0.00396728515625,B,0,2026-08-24_22-04-28,2026-08-24
0.0,0.0,0.2387820512820513,0.0,0.3565217391304348,1.0,1.0,1.0,1.0,1.0,1.0,0.5367431640625,0.04638671875,-0.1353759765625,-0.02288818359375,-0.0028076171875,0.006439208984375,B,0,2026-08-24_22-04-28,2026-08-24
0.0,0.0,0.21955128205128205,0.0,0.2608695652173913,1.0,1.0,1.0,1.0,1.0,1.0,0.5396728515625,0.048095703125,-0.1279296875,-0.02044677734375,-0.009765625,0.007659912109375,B,0,2026-08-24_22-04-28,2026-08-24
0.0,0.0,0.21314102564102563,0.0,0.1391304347826087,1.0,1.0,1.0,1.0,1.0,1.0,0.5379638671875,0.05078125,-0.13525390625,-0.01153564453125,-0.015625,0.005645751953125,B,0,2026-08-24_22-04-28,2026-08-24
0.0,0.0,0.2403846153846154,0.0,0.23478260869565218,1.0,1.0,1.0,1.0,1.0,1.0,0.539306640625,0.0467529296875,-0.142822265625,-0.011749267578125,-0.015411376953125,0.002899169921875,B,0,2026-08-24_22-04-28,2026-08-24
0.0,0.0,0.3141025641025641,0.0,0.3565217391304348,1.0,1.0,1.0,1.0,1.0,1.0,0.530517578125,0.04443359375,-0.15185546875,-0.019775390625,-0.005615234375,0.00189208984375,B,1,2026-08-24_22-04-28,2026-08-24
0.0,0.0,0.2980769230769231,0.0,0.2956521739130435,1.0,1.0,1.0,1.0,1.0,1.0,0.53369140625,0.0445556640625,-0.1455078125,-0.020050048828125,-0.00201416015625,0.000335693359375,B,1,2026-08-24_22-04-28,2026-08-24
0.0,0.0,0.2932692307692308,0.0,0.30434782608695654,1.0,1.0,1.0,1.0,1.0,1.0,0.5352783203125,0.0452880859375,-0.1513671875,-0.023406982421875,-0.00848388671875,0.003387451171875,B,1,2026-08-24_22-04-28,2026-08-24
0.0,0.0,0.30288461538461536,0.0,0.4434782608695652,1.0,1.0,1.0,1.0,1.0,1.0,0.5289306640625,0.0478515625,-0.1533203125,-0.016693115234375,-0.00775146484375,0.0047607421875,B,1,2026-08-24_22-04-28,2026-08-24
0.0,0.0,0.24358974358974358,0.0,0.34782608695652173,1.0,1.0,1.0,1.0,1.0,1.0,0.5303955078125,0.04150390625,-0.151123046875,-0.013397216796875,-0.005096435546875,0.003326416015625,B,1,2026-08-24_22-04-28,2026-08-24
0.0,0.0,0.25961538461538464,0.0,0.3130434782608696,1.0,1.0,1.0,1.0,1.0,1.0,0.5340576171875,0.03955078125,-0.142333984375,-0.01617431640625,-0.007720947265625,0.000885009765625,B,1,2026-08-24_22-04-28,2026-08-24
0.0,0.0,0.296474358974359,0.0,0.30434782608695654,1.0,1.0,1.0,1.0,1.0,1.0,0.52978515625,0.0447998046875,-0.152099609375,-0.028228759765625,-0.0079345703125,0.0054931640625,B,1,2026-08-24_22-04-28,2026-08-24
0.0,0.0,0.29967948717948717,0.0,0.34782608695652173,1.0,1.0,1.0,1.0,1.0,1.0,0.531005859375,0.0482177734375,-0.152587890625,-0.027130126953125,-0.005767822265625,0.0084228515625,B,1,2026-08-24_22-04-28,2026-08-24
0.0,0.0,0.2932692307692308,0.0,0.30434782608695654,1.0,1.0,1.0,1.0,1.0,1.0,0.5361328125,0.0487060546875,-0.1480712890625,-0.02325439453125,-0.011810302734375,0.009521484375,B,1,2026-08-24_22-04-28,2026-08-24
0.0,0.0,0.2932692307692308,0.0,0.2782608695652174,1.0,1.0,1.0,1.0,1.0,1.0,0.5313720703125,0.0400390625,-0.14697265625,-0.0159912109375,-0.012847900390625,0.006988525390625,B,1,2026-08-24_22-04-28,2026-08-24
0.0,0.0,0.3301282051282051,0.0,0.26956521739130435,1.0,1.0,1.0,1.0,1.0,1.0,0.53759765625,0.037841796875,-0.1484375,-0.011566162109375,-0.008697509765625,0.0028076171875,B,1,2026-08-24_22-04-28,2026-08-24
0.0,0.0,0.30288461538461536,0.0,0.2782608695652174,1.0,1.0,1.0,1.0,1.0,1.0,0.536376953125,0.0404052734375,-0.1414794921875,-0.01495361328125,-0.012176513671875,0.004150390625,B,1,2026-08-24_22-04-28,2026-08-24
0.0,0.0,0.296474358974359,0.0,0.26956521739130435,1.0,1.0,1.0,1.0,1.0,1.0,0.5369873046875,0.0401611328125,-0.146240234375,-0.01904296875,-0.01348876953125,0.00579833984375,B,1,2026-08-24_22-04-28,2026-08-24
0.0,0.0,0.30288461538461536,0.0,0.2,1.0,1.0,1.0,1.0,1.0,1.0,0.5340576171875,0.0408935546875,-0.148193359375,-0.0162353515625,-0.0150146484375,0.007415771484375,B,1,2026-08-24_22-04-28,2026-08-24
0.0,0.0,0.3076923076923077,0.0,0.22608695652173913,1.0,1.0,1.0,1.0,1.0,1.0,0.5335693359375,0.0411376953125,-0.149169921875,-0.008270263671875,-0.012847900390625,0.00347900390625,B,1,2026-08-24_22-04-28,2026-08-24
0.0,0.0,0.29967948717948717,0.0,0.3652173913043478,1.0,1.0,1.0,1.0,1.0,1.0,0.5335693359375,0.0440673828125,-0.1561279296875,-0.0028076171875,-0.01348876953125,0.00067138671875,B,1,2026-08-24_22-04-28,2026-08-24
0.0,0.0,0.2932692307692308,0.0,0.2608695652173913,1.0,1.0,1.0,1.0,1.0,1.0,0.52978515625,0.0296630859375,-0.1871337890625,-0.015411376953125,-0.013824462890625,0.0025634765625,B,1,2026-08-24_22-04-28,2026-08-24
0.0,0.0,0.2708333333333333,0.0,0.2608695652173913,1.0,1.0,1.0,1.0,1.0,1.0,0.5311279296875,0.04150390625,-0.154541015625,-0.027099609375,-0.012908935546875,0.006866455078125,B,1,2026-08-24_22-04-28,2026-08-24
0.0,0.0,0.29967948717948717,0.0,0.3739130434782609,1.0,1.0,1.0,1.0,1.0,1.0,0.5316162109375,0.0477294921875,-0.1507568359375,-0.03179931640625,-0.004852294921875,0.012908935546875,B,1,2026-08-24_22-04-28,2026-08-24
0.0,0.0,0.28846153846153844,0.0,0.3391304347826087,1.0,1.0,1.0,1.0,1.0,1.0,0.531494140625,0.0477294921875,-0.1553955078125,-0.026397705078125,-0.003448486328125,0.01763916015625,B,1,2026-08-24_22-04-28,2026-08-24
0.0,0.0,0.3076923076923077,0.0,0.4608695652173913,1.0,1.0,1.0,1.0,1.0,1.0,0.5372314453125,0.043212890625,-0.1575927734375,-0.0267333984375,-0.00799560546875,0.01568603515625,B,1,2026-08-24_22-04-28,2026-08-24
0.0,0.0,0.32211538461538464,0.0,0.3565217391304348,1.0,1.0,1.0,1.0,1.0,1.0,0.535400390625,0.04541015625,-0.151123046875,-0.0172119140625,-0.007080078125,0.009857177734375,B,1,2026-08-24_22-04-28,2026-08-24
0.0,0.0,0.3349358974358974,0.0,0.3565217391304348,1.0,1.0,1.0,1.0,1.0,1.0,0.5350341796875,0.0328369140625,-0.1514892578125,-0.018890380859375,-0.011505126953125,0.0081787109375,B,1,2026-08-24_22-04-28,2026-08-24
0.0,0.0,0.3060897435897436,0.0,0.34782608695652173,1.0,1.0,1.0,1.0,1.0,1.0,0.5318603515625,0.0430908203125,-0.1517333984375,-0.021514892578125,-0.010986328125,0.007843017578125,B,1,2026-08-24_22-04-28,2026-08-24
0.0,0.0,0.2932692307692308,0.0,0.20869565217391303,1.0,1.0,1.0,1.0,1.0,1.0,0.5345458984375,0.0445556640625,-0.149658203125,-0.0185546875,-0.007232666015625,0.0068359375,B,1,2026-08-24_22-04-28,2026-08-24
0.0,0.0,0.2948717948717949,0.0,0.25217391304347825,1.0,1.0,1.0,1.0,1.0,1.0,0.532958984375,0.045654296875,-0.151611328125,-0.022369384765625,-0.011016845703125,0.008148193359375,B,1,2026-08-24_22-04-28,2026-08-24
0.0,0.0,0.3141025641025641,0.0,0.4608695652173913,1.0,1.0,1.0,1.0,1.0,1.0,0.525146484375,0.0439453125,-0.1544189453125,-0.01708984375,-0.01263427734375,0.01129150390625,B,1,2026-08-24_22-04-28,2026-08-24
0.0,0.0,0.34455128205128205,0.0,0.13043478260869565,1.0,1.0,1.0,1.0,1.0,1.0,0.5345458984375,0.0423583984375,-0.1549072265625,-0.013336181640625,-0.00836181640625,0.0111083984375,B,1,2026-08-24_22-04-28,2026-08-24
0.0,0.0,0.33814102564102566,0.0,0.34782608695652173,1.0,1.0,1.0,1.0,1.0,1.0,0.535888671875,0.0367431640625,-0.152587890625,-0.02117919921875,-0.010345458984375,0.009857177734375,B,1,2026-08-24_22-04-28,2026-08-24
0.0,0.0,0.3092948717948718,0.0,0.34782608695652173,1.0,1.0,1.0,1.0,1.0,1.0,0.533935546875,0.0380859375,-0.1536865234375,-0.02239990234375,-0.01116943359375,0.011932373046875,B,1,2026-08-24_22-04-28,2026-08-24
0.0,0.0,0.26121794871794873,0.0,0.3130434782608696,1.0,1.0,1.0,1.0,1.0,1.0,0.5352783203125,0.034912109375,-0.1527099609375,-0.020111083984375,-0.0064697265625,0.011749267578125,B,1,2026-08-24_22-04-28,2026-08-24
0.0,0.0,0.26282051282051283,0.0,0.3391304347826087,1.0,1.0,1.0,1.0,1.0,1.0,0.53564453125,0.0318603515625,-0.1549072265625,-0.0169677734375,-0.008087158203125,0.006561279296875,B,1,2026-08-24_22-04-28,2026-08-24
0.0,0.0,0.2644230769230769,0.0,0.28695652173913044,1.0,1.0,1.0,1.0,1.0,1.0,0.5350341796875,0.0313720703125,-0.1539306640625,-0.01263427734375,-0.007781982421875,0.000946044921875,B,1,2026-08-24_22-04-28,2026-08-24
0.0,0.0,0.30288461538461536,0.0,0.2782608695652174,1.0,1.0,1.0,1.0,1.0,1.0,0.53515625,0.0343017578125,-0.1561279296875,-0.012847900390625,-0.007537841796875,-0.002471923828125,B,1,2026-08-24_22-04-28,2026-08-24
0.0,0.0,0.2932692307692308,0.0,0.34782608695652173,1.0,1.0,1.0,1.0,1.0,1.0,0.533447265625,0.0345458984375,-0.1490478515625,-0.022674560546875,-0.0113525390625,-0.00274658203125,B,1,2026-08-24_22-04-28,2026-08-24
0.0,0.0,0.3076923076923077,0.0,0.26956521739130435,1.0,1.0,1.0,1.0,1.0,1.0,0.53271484375,0.04296875,-0.153076171875,-0.020050048828125,-0.0091552734375,6.103515625e-05,B,1,2026-08-24_22-04-28,2026-08-24
0.0,0.0,0.2724358974358974,0.0,0.2608695652173913,1.0,1.0,1.0,1.0,1.0,1.0,0.53125,0.044677734375,-0.1512451171875,-0.01446533203125,-0.006317138671875,0.00213623046875,B,1,2026-08-24_22-04-28,2026-08-24
0.0,0.0,0.2932692307692308,0.0,0.2782608695652174,1.0,1.0,1.0,1.0,1.0,1.0,0.528076171875,0.0457763671875,-0.1519775390625,-0.008544921875,-0.002960205078125,0.001800537109375,B,1,2026-08-24_22-04-28,2026-08-24
0.0,0.0,0.28685897435897434,0.0,0.3130434782608696,1.0,1.0,1.0,1.0,1.0,1.0,0.5311279296875,0.0396728515625,-0.15966796875,-0.007598876953125,-0.003082275390625,0.003265380859375,B,1,2026-08-24_22-04-28,2026-08-24
0.0,0.0,0.2692307692307692,0.0,0.3652173913043478,1.0,1.0,1.0,1.0,1.0,1.0,0.5296630859375,0.0325927734375,-0.156982421875,-0.020843505859375,-0.012359619140625,0.004058837890625,B,1,2026-08-24_22-04-28,2026-08-24
0.0,0.0,0.358974358974359,0.0,0.3217391304347826,1.0,1.0,1.0,1.0,1.0,0.0,0.537353515625,0.05126953125,-0.13916015625,-0.012542724609375,-0.00543212890625,0.004486083984375,B,2,2026-08-24_22-04-28,2026-08-24
0.0,0.0,0.3557692307692308,0.0,0.5217391304347826,1.0,1.0,1.0,1.0,1.0,0.0,0.53662109375,0.04296875,-0.1470947265625,0.00048828125,-0.005706787109375,-6.103515625e-05,B,2,2026-08-24_22-04-28,2026-08-24
0.0,0.0,0.3926282051282051,0.0,0.4,1.0,1.0,1.0,1.0,1.0,0.0,0.5404052734375,0.0435791015625,-0.1441650390625,0.002105712890625,-0.00146484375,-0.002349853515625,B,2,2026-08-24_22-04-28,2026-08-24
0.0,0.0,0.4166666666666667,0.0,0.2956521739130435,1.0,1.0,1.0,1.0,1.0,0.0,0.5406494140625,0.041259765625,-0.148193359375,0.000274658203125,-0.0020751953125,-0.005615234375,B,2,2026-08-24_22-04-28,2026-08-24
0.0,0.0,0.3942307692307692,0.0,0.45217391304347826,1.0,1.0,1.0,1.0,1.0,0.0,0.5418701171875,0.0440673828125,-0.1468505859375,0.0008544921875,-0.01129150390625,-0.005523681640625,B,2,2026-08-24_22-04-28,2026-08-24
0.0,0.0,0.3685897435897436,0.0,0.40869565217391307,1.0,1.0,1.0,1.0,1.0,0.0,0.54296875,0.0396728515625,-0.141845703125,0.000274658203125,-0.014984130859375,-0.0089111328125,B,2,2026-08-24_22-04-28,2026-08-24
0.0,0.0,0.391025641025641,0.0,0.3565217391304348,1.0,1.0,1.0,1.0,1.0,0.0,0.541259765625,0.048583984375,-0.132080078125,-0.008270263671875,-0.02459716796875,-0.00762939453125,B,2,2026-08-24_22-04-28,2026-08-24
0.0,0.0,0.36698717948717946,0.0,0.4,1.0,1.0,1.0,1.0,1.0,0.0,0.5362548828125,0.0582275390625,-0.1439208984375,-0.0029296875,-0.024932861328125,-0.003875732421875,B,2,2026-08-24_22-04-28,2026-08-24
0.0,0.0,0.3974358974358974,0.0,0.4,1.0,1.0,1.0,1.0,1.0,0.0,0.5277099609375,0.050537109375,-0.1466064453125,-0.001495361328125,-0.0064697265625,-0.001556396484375,B,2,2026-08-24_22-04-28,2026-08-24
0.0,0.0,0.3894230769230769,0.0,0.34782608695652173,1.0,1.0,1.0,1.0,1.0,0.0,0.5294189453125,0.052490234375,-0.160888671875,-0.014373779296875,0.00469970703125,-0.0001220703125,B,2,2026-08-24_22-04-28,2026-08-24
0.0,0.0,0.3926282051282051,0.0,0.5304347826086957,1.0,1.0,1.0,1.0,1.0,0.0,0.530029296875,0.045166015625,-0.1409912109375,-0.02618408203125,0.000274658203125,0.002044677734375,B,2,2026-08-24_22-04-28,2026-08-24
0.0,0.0,0.41025641025641024,0.0,0.3565217391304348,1.0,1.0,1.0,1.0,1.0,0.0,0.533935546875,0.050048828125,-0.1466064453125,-0.020904541015625,-0.005126953125,0.006683349609375,B,2,2026-08-24_22-04-28,2026-08-24
0.0,0.0,0.391025641025641,0.0,0.45217391304347826,1.0,1.0,1.0,1.0,1.0,0.0,0.5396728515625,0.0404052734375,-0.1304931640625,-0.021148681640625,-0.0069580078125,0.0042724609375,B,2,2026-08-24_22-04-28,2026-08-24
0.0,0.0,0.3958333333333333,0.0,0.5304347826086957,1.0,1.0,1.0,1.0,1.0,0.0,0.537353515625,0.0438232421875,-0.139404296875,-0.0164794921875,-0.012054443359375,0.002166748046875,B,2,2026-08-24_22-04-28,2026-08-24
0.0,0.0,0.3926282051282051,0.0,0.43478260869565216,1.0,1.0,1.0,1.0,1.0,0.0,0.538818359375,0.045654296875,-0.1444091796875,-0.021759033203125,-0.006317138671875,0.001007080078125,B,2,2026-08-24_22-04-28,2026-08-24
0.0,0.0,0.39903846153846156,0.0,0.391304347826087,1.0,1.0,1.0,1.0,1.0,0.0,0.5423583984375,0.046630859375,-0.1375732421875,-0.024688720703125,-0.00384521484375,0.00042724609375,B,2,2026-08-24_22-04-28,2026-08-24
0.0,0.0,0.38782051282051283,0.0,0.4,1.0,1.0,1.0,1.0,1.0,0.0,0.54248046875,0.043701171875,-0.1331787109375,-0.0218505859375,-0.010986328125,-0.001251220703125,B,2,2026-08-24_22-04-28,2026-08-24
0.0,0.0,0.38782051282051283,0.0,0.4782608695652174,1.0,1.0,1.0,1.0,1.0,0.0,0.5389404296875,0.04443359375,-0.1343994140625,-0.0238037109375,-0.021148681640625,-0.00238037109375,B,2,2026-08-24_22-04-28,2026-08-24
0.0,0.0,0.4182692307692308,0.0,0.4,1.0,1.0,1.0,1.0,1.0,0.0,0.53515625,0.0511474609375,-0.140380859375,-0.036346435546875,-0.03271484375,0.0010986328125,B,2,2026-08-24_22-04-28,2026-08-24
0.0,0.0,0.3958333333333333,0.0,0.3739130434782609,1.0,1.0,1.0,1.0,1.0,0.0,0.5277099609375,0.059326171875,-0.136962890625,-0.03900146484375,-0.029510498046875,0.006378173828125,B,2,2026-08-24_22-04-28,2026-08-24
0.0,0.0,0.36538461538461536,0.0,0.40869565217391307,1.0,1.0,1.0,1.0,1.0,0.0,0.525390625,0.061279296875,-0.1573486328125,-0.019866943359375,-0.00958251953125,0.008514404296875,B,2,2026-08-24_22-04-28,2026-08-24
0.0,0.0,0.3974358974358974,0.0,0.5130434782608696,1.0,1.0,1.0,1.0,1.0,0.0,0.5330810546875,0.0556640625,-0.1527099609375,-0.00335693359375,0.00103759765625,0.00164794921875,B,2,2026-08-24_22-04-28,2026-08-24
0.0,0.0,0.3942307692307692,0.0,0.3826086956521739,1.0,1.0,1.0,1.0,1.0,0.0,0.53759765625,0.05078125,-0.1483154296875,0.00054931640625,-0.00799560546875,0.0010986328125,B,2,2026-08-24_22-04-28,2026-08-24
0.0,0.0,0.375,0.0,0.41739130434782606,1.0,1.0,1.0,1.0,1.0,0.0,0.5316162109375,0.0467529296875,-0.142578125,-0.005401611328125,-0.01141357421875,0.004547119140625,B,2,2026-08-24_22-04-28,2026-08-24
0.0,0.0,0.3717948717948718,0.0,0.3826086956521739,1.0,1.0,1.0,1.0,1.0,0.0,0.529296875,0.043212890625,-0.15478515625,-0.0218505859375,-0.001495361328125,0.006622314453125,B,2,2026-08-24_22-04-28,2026-08-24
0.0,0.0,0.38461538461538464,0.0,0.4260869565217391,1.0,1.0,1.0,1.0,1.0,0.0,0.53759765625,0.0447998046875,-0.1474609375,-0.037628173828125,-0.013671875,0.012847900390625,B,2,2026-08-24_22-04-28,2026-08-24
0.0,0.0,0.3733974358974359,0.0,0.391304347826087,1.0,1.0,1.0,1.0,1.0,0.0,0.5372314453125,0.0465087890625,-0.1396484375,-0.03131103515625,-0.0052490234375,0.010498046875,B,2,2026-08-24_22-04-28,2026-08-24
0.0,0.0,0.40705128205128205,0.0,0.391304347826087,1.0,1.0,1.0,1.0,1.0,0.0,0.54248046875,0.0487060546875,-0.1395263671875,-0.0205078125,-0.008697509765625,0.006011962890625,B,2,2026-08-24_22-04-28,2026-08-24
0.0,0.0,0.391025641025641,0.0,0.4260869565217391,1.0,1.0,1.0,1.0,1.0,0.0,0.5400390625,0.049560546875,-0.127685546875,-0.004150390625,-0.013153076171875,-9.1552734375e-05,B,2,2026-08-24_22-04-28,2026-08-24
0.0,0.0,0.4182692307692308,0.0,0.30434782608695654,1.0,1.0,1.0,1.0,1.0,0.0,0.53662109375,0.0418701171875,-0.139892578125,-0.0030517578125,-0.014678955078125,-0.0008544921875,B,2,2026-08-24_22-04-28,2026-08-24
0.0,0.0,0.3717948717948718,0.0,0.2608695652173913,1.0,1.0,1.0,1.0,1.0,0.0,0.5333251953125,0.0357666015625,-0.1441650390625,-0.01690673828125,-0.020660400390625,0.0006103515625,B,2,2026-08-24_22-04-28,2026-08-24
0.0,0.0,0.421474358974359,0.0,0.5304347826086957,1.0,1.0,1.0,1.0,1.0,0.0,0.5338134765625,0.047119140625,-0.1431884765625,-0.022705078125,-0.00927734375,0.00146484375,B,2,2026-08-24_22-04-28,2026-08-24
0.0,0.0,0.3685897435897436,0.0,0.4260869565217391,1.0,1.0,1.0,1.0,1.0,0.0,0.5343017578125,0.046875,-0.1474609375,-0.0263671875,-0.011444091796875,0.0025634765625,B,2,2026-08-24_22-04-28,2026-08-24
0.0,0.0,0.3958333333333333,0.0,0.4260869565217391,1.0,1.0,1.0,1.0,1.0,0.0,0.5308837890625,0.0460205078125,-0.14404296875,-0.02557373046875,-0.01275634765625,0.002227783203125,B,2,2026-08-24_22-04-28,2026-08-24
0.0,0.0,0.3958333333333333,0.0,0.28695652173913044,1.0,1.0,1.0,1.0,1.0,0.0,0.5325927734375,0.050048828125,-0.1395263671875,-0.018951416015625,-0.018463134765625,0.0030517578125,B,2,2026-08-24_22-04-28,2026-08-24
0.0,0.0,0.36538461538461536,0.0,0.4,1.0,1.0,1.0,1.0,1.0,0.0,0.536376953125,0.0499267578125,-0.14404296875,-0.014556884765625,-0.021270751953125,0.001068115234375,B,2,2026-08-24_22-04-28,2026-08-24
0.0,0.0,0.3717948717948718,0.0,0.391304347826087,1.0,1.0,1.0,1.0,1.0,0.0,0.5347900390625,0.0538330078125,-0.139892578125,-0.013946533203125,-0.024078369140625,0.001220703125,B,2,2026-08-24_22-04-28,2026-08-24
0.0,0.0,0.36217948717948717,0.0,0.3130434782608696,1.0,1.0,1.0,1.0,1.0,0.0,0.5277099609375,0.05126953125,-0.1522216796875,-0.015594482421875,-0.0115966796875,0.0010986328125,B,2,2026-08-24_22-04-28,2026-08-24
0.0,0.0,0.38461538461538464,0.0,0.4260869565217391,1.0,1.0,1.0,1.0,1.0,0.0,0.5316162109375,0.0552978515625,-0.1552734375,-0.01513671875,-0.006378173828125,0.001617431640625,B,2,2026-08-24_22-04-28,2026-08-24
0.0,0.0,0.34935897435897434,0.0,0.4434782608695652,1.0,1.0,1.0,1.0,1.0,0.0,0.5311279296875,0.0543212890625,-0.149658203125,-0.01348876953125,-0.0098876953125,0.00286865234375,B,2,2026-08-24_22-04-28,2026-08-24
0.0,0.0,0.3189102564102564,0.0,0.2782608695652174,1.0,1.0,1.0,1.0,1.0,0.0,0.5372314453125,0.0478515625,-0.113037109375,0.011016845703125,-0.010650634765625,-0.007232666015625,B,3,2026-08-24_22-04-28,2026-08-24
0.0,0.0,0.2916666666666667,0.0,0.26956521739130435,1.0,1.0,1.0,1.0,1.0,0.0,0.537109375,0.03955078125,-0.1209716796875,-0.01220703125,-0.011749267578125,-0.003387451171875,B,3,2026-08-24_22-04-28,2026-08-24
0.0,0.0,0.28205128205128205,0.0,0.2608695652173913,1.0,1.0,1.0,1.0,1.0,0.0,0.5374755859375,0.04833984375,-0.122802734375,-0.0198974609375,-0.011138916015625,0.003265380859375,B,3,2026-08-24_22-04-28,2026-08-24
0.0,0.0,0.2932692307692308,0.0,0.2608695652173913,1.0,1.0,1.0,1.0,1.0,0.0,0.5406494140625,0.048095703125,-0.1163330078125,-0.021575927734375,-0.009185791015625,0.006317138671875,B,3,2026-08-24_22-04-28,2026-08-24
0.0,0.0,0.3269230769230769,0.0,0.30434782608695654,1.0,1.0,1.0,1.0,1.0,0.0,0.54150390625,0.0511474609375,-0.1224365234375,-0.02069091796875,-0.011077880859375,0.004669189453125,B,3,2026-08-24_22-04-28,2026-08-24
0.0,0.0,0.3092948717948718,0.0,0.30434782608695654,1.0,1.0,1.0,1.0,1.0,0.0,0.5443115234375,0.052001953125,-0.12255859375,-0.001068115234375,-0.0062255859375,0.002655029296875,B,3,2026-08-24_22-04-28,2026-08-24
0.0,0.0,0.3157051282051282,0.0,0.2608695652173913,1.0,1.0,1.0,1.0,1.0,0.0,0.54638671875,0.037353515625,-0.1175537109375,-0.013946533203125,-0.009185791015625,0.003387451171875,B,3,2026-08-24_22-04-28,2026-08-24
0.0,0.0,0.3173076923076923,0.0,0.3565217391304348,1.0,1.0,1.0,1.0,1.0,0.0,0.5450439453125,0.044189453125,-0.1199951171875,-0.0218505859375,-0.009307861328125,0.005462646484375,B,3,2026-08-24_22-04-28,2026-08-24
0.0,0.0,0.3092948717948718,0.0,0.3217391304347826,1.0,1.0,1.0,1.0,1.0,0.0,0.5482177734375,0.046875,-0.128662109375,-0.022064208984375,-0.011932373046875,0.0054931640625,B,3,2026-08-24_22-04-28,2026-08-24
0.0,0.0,0.3141025641025641,0.0,0.21739130434782608,1.0,1.0,1.0,1.0,1.0,0.0,0.54638671875,0.0418701171875,-0.1181640625,-0.02313232421875,-0.016632080078125,0.005401611328125,B,3,2026-08-24_22-04-28,2026-08-24
0.0,0.0,0.3157051282051282,0.0,0.21739130434782608,1.0,1.0,1.0,1.0,1.0,0.0,0.5472412109375,0.0426025390625,-0.1318359375,-0.01934814453125,-0.0142822265625,0.003692626953125,B,3,2026-08-24_22-04-28,2026-08-24
0.0,0.0,0.3141025641025641,0.0,0.2608695652173913,1.0,1.0,1.0,1.0,1.0,0.0,0.5452880859375,0.04443359375,-0.1165771484375,-0.012542724609375,-0.015594482421875,0.001800537109375,B,3,2026-08-24_22-04-28,2026-08-24
